timestamp(unix),attitude_roll(radians),attitude_pitch(radians),attitude_yaw(radians),rotation_rate_x(radians/s),rotation_rate_y(radians/s),rotation_rate_z(radians/s),gravity_x(G),gravity_y(G),gravity_z(G),user_acc_x(G),user_acc_y(G),user_acc_z(G),magnetic_field_x(microteslas),magnetic_field_y(microteslas),magnetic_field_z(microteslas),latitude(degree),longitude(degree),altitude(meter),speed(m/s),course(degree),timestamp(unix),User Mark
1504282492.288878,0.168862,0.273709,2.008617,-0.285534,-0.108529,-0.147567,0.161804,-0.270304,-0.949081,-0.164825,-0.357229,0.204010,-17.683359,-29.519461,-33.741364,,,,,,,
1504282492.298888,0.167302,0.269742,2.007547,-0.401462,-0.211976,-0.173203,0.160501,-0.266483,-0.950382,-0.157572,-0.370602,0.181675,-17.683619,-29.369619,-33.667480,,,,,,,
1504282492.308898,0.164634,0.264731,2.006511,-0.501493,-0.318768,-0.182795,0.158182,-0.261650,-0.952112,-0.148432,-0.383797,0.158411,-17.683619,-29.369619,-33.667480,,,,,,,
1504282492.318908,0.161196,0.258979,2.005548,-0.564936,-0.381115,-0.183862,0.155147,-0.256094,-0.954120,-0.138072,-0.399179,0.145465,-18.059443,-29.220694,-33.969513,,,,,,,
1504282492.328917,0.157464,0.253048,2.004657,-0.568315,-0.398145,-0.175299,0.151820,-0.250356,-0.956176,-0.132594,-0.416758,0.154937,-18.059443,-29.220694,-33.969513,,,,,,,
1504282492.338927,0.153849,0.247614,2.003861,-0.504197,-0.372055,-0.153886,0.148569,-0.245091,-0.958049,-0.132395,-0.425579,0.171809,-18.210505,-28.846228,-34.047699,,,,,,,
1504282492.348937,0.150756,0.243208,2.003170,-0.396054,-0.306908,-0.126061,0.145766,-0.240817,-0.959562,-0.136122,-0.419446,0.194364,-18.210505,-28.846228,-34.047699,,,,,,,
1504282492.358947,0.148548,0.240015,2.002513,-0.275880,-0.210947,-0.107876,0.143760,-0.237717,-0.960637,-0.146003,-0.417327,0.219075,-18.360880,-28.696890,-34.049194,,,,,,,
1504282492.368956,0.147437,0.238080,2.001748,-0.151284,-0.102224,-0.100380,0.142760,-0.235837,-0.961249,-0.152342,-0.413760,0.230826,-18.360880,-28.696890,-34.049194,,,,,,,
1504282492.378966,0.147522,0.237192,2.000727,-0.049940,0.017374,-0.119629,0.142872,-0.234974,-0.961444,-0.160588,-0.395778,0.238299,-18.436670,-28.471930,-34.201080,,,,,,,
1504282492.388976,0.148818,0.237068,1.999018,0.027913,0.107374,-0.182629,0.144123,-0.234853,-0.961287,-0.174014,-0.381602,0.235915,-18.436670,-28.471930,-34.201080,,,,,,,
1504282492.398986,0.150633,0.237254,1.996565,0.060351,0.119963,-0.248774,0.145860,-0.235034,-0.960981,-0.165391,-0.366391,0.230024,-18.211176,-28.621069,-34.124390,,,,,,,
1504282492.408996,0.152084,0.237339,1.993505,0.048428,0.059384,-0.308462,0.147252,-0.235117,-0.960748,-0.168858,-0.372732,0.196817,-18.211176,-28.621069,-34.124390,,,,,,,
1504282492.419005,0.152952,0.237111,1.989834,0.023568,-0.019201,-0.370276,0.148093,-0.234895,-0.960673,-0.165564,-0.369398,0.151194,-18.060419,-28.920401,-34.121796,,,,,,,
1504282492.429015,0.153242,0.236438,1.985789,-0.015174,-0.082782,-0.405456,0.148396,-0.234241,-0.960786,-0.140110,-0.368542,0.135224,-18.060419,-28.920401,-34.121796,,,,,,,
1504282492.439025,0.153118,0.235450,1.981573,-0.038833,-0.116668,-0.422515,0.148312,-0.233280,-0.961033,-0.122891,-0.375332,0.123569,-17.910913,-28.769567,-34.197510,,,,,,,
1504282492.449035,0.153027,0.234425,1.977358,-0.036592,-0.100707,-0.418270,0.148262,-0.232284,-0.961282,-0.127372,-0.374909,0.126412,-17.910913,-28.769567,-34.197510,,,,,,,
1504282492.459044,0.153459,0.233416,1.973263,-0.039300,-0.030369,-0.404522,0.148713,-0.231302,-0.961449,-0.142289,-0.371283,0.158943,-18.060907,-28.770254,-34.197876,,,,,,,
1504282492.469054,0.154637,0.232278,1.969483,-0.064464,0.047589,-0.368412,0.149885,-0.230195,-0.961533,-0.155882,-0.369644,0.186157,-18.060907,-28.770254,-34.197876,,,,,,,
1504282492.479064,0.156164,0.230637,1.966406,-0.131646,0.091766,-0.304562,0.151412,-0.228598,-0.961674,-0.158126,-0.371927,0.199055,-17.686136,-28.768255,-34.346954,,,,,,,
1504282492.489043,0.157587,0.228701,1.964056,-0.158677,0.087658,-0.239490,0.152849,-0.226712,-0.961893,-0.164568,-0.392657,0.157267,-17.686136,-28.768255,-34.346954,,,,,,,
1504282492.499053,0.158957,0.227004,1.962242,-0.126808,0.100133,-0.191424,0.154228,-0.225059,-0.962061,-0.159523,-0.398232,0.143488,-17.386240,-28.916311,-34.645111,,,,,,,
1504282492.509063,0.160760,0.226137,1.960412,-0.035741,0.147335,-0.191349,0.155993,-0.224215,-0.961974,-0.150774,-0.404081,0.169372,-17.386240,-28.916311,-34.645111,,,,,,,
1504282492.519072,0.162718,0.225769,1.958433,0.003781,0.149147,-0.197688,0.157889,-0.223856,-0.961748,-0.135978,-0.406256,0.210772,-17.385706,-29.216024,-34.792877,,,,,,,
1504282492.529082,0.164586,0.225761,1.956194,0.050735,0.134933,-0.222132,0.159687,-0.223848,-0.961453,-0.134922,-0.408751,0.196454,-17.385706,-29.216024,-34.792877,,,,,,,
1504282492.539092,0.166653,0.226495,1.953545,0.137458,0.156623,-0.247638,0.161646,-0.224564,-0.960959,-0.139414,-0.407364,0.160986,-16.710779,-29.138128,-34.716766,,,,,,,
1504282492.549102,0.169269,0.228173,1.950712,0.233893,0.213362,-0.239031,0.164096,-0.226199,-0.960160,-0.133181,-0.404478,0.202363,-16.710779,-29.138128,-34.716766,,,,,,,
1504282492.559112,0.172359,0.230534,1.948068,0.285310,0.260854,-0.203802,0.166969,-0.228498,-0.959119,-0.142784,-0.417529,0.231901,-17.009577,-29.440084,-34.415253,,,,,,,
1504282492.569121,0.175908,0.233084,1.945791,0.288762,0.316197,-0.165467,0.170270,-0.230979,-0.957944,-0.159512,-0.424279,0.229993,-17.009577,-29.440084,-34.415253,,,,,,,
1504282492.579131,0.180067,0.235658,1.943735,0.288178,0.386515,-0.149581,0.174145,-0.233483,-0.956639,-0.162579,-0.417854,0.203679,-16.634241,-29.663092,-34.562622,,,,,,,
1504282492.589141,0.184921,0.238220,1.941581,0.289827,0.449389,-0.165700,0.178676,-0.235973,-0.955192,-0.177287,-0.405201,0.204536,-16.634241,-29.663092,-34.562622,,,,,,,
1504282492.599151,0.190395,0.240737,1.938993,0.296809,0.492005,-0.213796,0.183789,-0.238419,-0.953613,-0.193051,-0.400985,0.202881,-16.033274,-29.960699,-34.408905,,,,,,,
1504282492.609160,0.196092,0.243215,1.935833,0.304561,0.496256,-0.263958,0.189103,-0.240824,-0.951968,-0.190599,-0.381597,0.193408,-16.033274,-29.960699,-34.408905,,,,,,,
1504282492.619170,0.202034,0.245968,1.932388,0.350646,0.516133,-0.273520,0.194623,-0.243495,-0.950175,-0.175672,-0.367436,0.170771,-15.957560,-30.335073,-34.555878,,,,,,,
1504282492.629180,0.208304,0.249436,1.928996,0.425432,0.550645,-0.238227,0.200400,-0.246858,-0.948104,-0.190772,-0.375930,0.163665,-15.957560,-30.335073,-34.555878,,,,,,,
1504282492.639190,0.214690,0.253849,1.926076,0.511617,0.566908,-0.164455,0.206217,-0.251131,-0.945731,-0.202738,-0.388365,0.186484,-15.132151,-30.630911,-34.776642,,,,,,,
1504282492.649199,0.220867,0.259268,1.923666,0.601824,0.551172,-0.092755,0.211754,-0.256373,-0.943098,-0.208168,-0.401281,0.177930,-15.132151,-30.630911,-34.776642,,,,,,,
1504282492.659209,0.226697,0.265662,1.921532,0.688854,0.518446,-0.053053,0.216875,-0.262548,-0.940231,-0.204363,-0.403849,0.161391,-14.605906,-31.078695,-34.696960,,,,,,,
1504282492.669219,0.232321,0.272793,1.919233,0.761240,0.496540,-0.055024,0.221724,-0.269422,-0.937150,-0.184446,-0.386156,0.159730,-14.605906,-31.078695,-34.696960,,,,,,,
1504282492.679229,0.238154,0.280570,1.916645,0.829770,0.522624,-0.062423,0.226684,-0.276903,-0.933777,-0.163742,-0.368803,0.158752,-14.228540,-31.752920,-34.240936,,,,,,,
1504282492.689238,0.244740,0.288769,1.913802,0.866713,0.600118,-0.072102,0.232271,-0.284772,-0.930029,-0.165118,-0.365603,0.178427,-14.228540,-31.752920,-34.240936,,,,,,,
1504282492.699248,0.252178,0.296866,1.910820,0.844921,0.672765,-0.078672,0.238600,-0.292525,-0.926013,-0.175428,-0.371797,0.211810,-13.477793,-31.825293,-33.863525,,,,,,,
1504282492.709227,0.260045,0.304405,1.907814,0.785453,0.699908,-0.091632,0.245303,-0.299726,-0.921949,-0.167331,-0.374316,0.203367,-13.477793,-31.825293,-33.863525,,,,,,,
1504282492.719237,0.267876,0.311252,1.904608,0.725683,0.675928,-0.125850,0.251966,-0.306251,-0.918000,-0.160337,-0.369057,0.178528,-13.325907,-32.574619,-33.857544,,,,,,,
1504282492.729247,0.275267,0.317491,1.901027,0.683773,0.609189,-0.172771,0.258219,-0.312184,-0.914256,-0.147120,-0.354289,0.164378,-13.325907,-32.574619,-33.857544,,,,,,,
1504282492.739257,0.281787,0.323123,1.897067,0.628670,0.495669,-0.216430,0.263682,-0.317530,-0.910849,-0.137782,-0.349447,0.164603,-12.874094,-33.023502,-33.403046,,,,,,,
1504282492.749263,0.287115,0.328020,1.892934,0.562690,0.366238,-0.244068,0.268087,-0.322169,-0.907930,-0.136236,-0.354039,0.166597,-12.874094,-33.023502,-33.403046,,,,,,,
1504282492.759272,0.291176,0.332204,1.888831,0.492403,0.243217,-0.253580,0.271383,-0.326127,-0.905534,-0.128454,-0.357833,0.153688,-12.422907,-33.322071,-33.099701,,,,,,,
1504282492.769282,0.293956,0.335619,1.885008,0.411405,0.125595,-0.246041,0.273576,-0.329354,-0.903705,-0.123933,-0.361000,0.154392,-12.422907,-33.322071,-33.099701,,,,,,,
1504282492.779292,0.295700,0.338334,1.881455,0.340238,0.034535,-0.241734,0.274889,-0.331916,-0.902368,-0.126451,-0.371804,0.158685,-12.270716,-34.146549,-33.018127,,,,,,,
1504282492.789302,0.296686,0.340420,1.878133,0.275733,-0.024610,-0.238539,0.275576,-0.333883,-0.901432,-0.123232,-0.374842,0.169087,-12.270716,-34.146549,-33.018127,,,,,,,
1504282492.799311,0.297305,0.341964,1.874934,0.223279,-0.049747,-0.243923,0.275983,-0.335338,-0.900768,-0.122022,-0.373998,0.190746,-12.119699,-34.371479,-32.716034,,,,,,,
1504282492.809321,0.297770,0.343086,1.871870,0.180529,-0.056857,-0.240782,0.276291,-0.336394,-0.900279,-0.128372,-0.383836,0.207957,-12.119699,-34.371479,-32.716034,,,,,,,
1504282492.819331,0.298166,0.343877,1.869058,0.143143,-0.052304,-0.224844,0.276569,-0.337140,-0.899915,-0.131412,-0.388827,0.223965,-12.194361,-34.596516,-32.864532,,,,,,,
1504282492.829341,0.298662,0.344342,1.866565,0.104836,-0.027499,-0.205741,0.276969,-0.337578,-0.899627,-0.143256,-0.400856,0.235519,-12.194361,-34.596516,-32.864532,,,,,,,
1504282492.839350,0.299374,0.344626,1.864372,0.081503,0.004637,-0.182355,0.277581,-0.337845,-0.899338,-0.140939,-0.405807,0.242234,-12.043726,-34.671436,-32.563599,,,,,,,
1504282492.849360,0.300116,0.344840,1.862521,0.068611,0.012171,-0.152503,0.278227,-0.338047,-0.899063,-0.135618,-0.411190,0.249527,-12.043726,-34.671436,-32.563599,,,,,,,
1504282492.859370,0.300623,0.345029,1.861035,0.056583,-0.003748,-0.119407,0.278664,-0.338224,-0.898861,-0.131203,-0.414508,0.254223,-11.894327,-34.520466,-32.714355,,,,,,,
1504282492.869380,0.300862,0.345217,1.859809,0.049946,-0.021828,-0.101240,0.278860,-0.338401,-0.898733,-0.131689,-0.414956,0.245489,-11.894327,-34.520466,-32.714355,,,,,,,
1504282492.879390,0.300936,0.345398,1.858727,0.047403,-0.029758,-0.088621,0.278908,-0.338572,-0.898654,-0.132241,-0.416037,0.238468,-11.668238,-34.819904,-32.486542,,,,,,,
1504282492.889399,0.300973,0.345724,1.857781,0.061207,-0.026693,-0.070456,0.278909,-0.338878,-0.898538,-0.128518,-0.417774,0.232691,-11.668238,-34.819904,-32.486542,,,,,,,
1504282492.899409,0.301025,0.346275,1.856916,0.083566,-0.025823,-0.059745,0.278900,-0.339396,-0.898346,-0.133362,-0.419362,0.228561,-11.594294,-34.444416,-32.564178,,,,,,,
1504282492.909419,0.300918,0.347095,1.855963,0.111119,-0.050557,-0.061789,0.278722,-0.340167,-0.898109,-0.127049,-0.408215,0.228783,-11.594294,-34.444416,-32.564178,,,,,,,
1504282492.919429,0.300523,0.348083,1.854866,0.130086,-0.086932,-0.072366,0.278267,-0.341096,-0.897898,-0.114190,-0.390578,0.227061,-11.668619,-34.669895,-32.487671,,,,,,,
1504282492.929408,0.299778,0.349184,1.853531,0.146899,-0.131805,-0.092538,0.277487,-0.342131,-0.897746,-0.118017,-0.390184,0.218409,-11.668619,-34.669895,-32.487671,,,,,,,
1504282492.939418,0.298650,0.350435,1.851929,0.167958,-0.178845,-0.111632,0.276348,-0.343306,-0.897649,-0.117412,-0.383607,0.209920,-11.892893,-34.821369,-32.262085,,,,,,,
1504282492.949427,0.297384,0.352018,1.850025,0.224484,-0.192080,-0.128589,0.275052,-0.344792,-0.897477,-0.121365,-0.376582,0.210374,-11.892893,-34.821369,-32.262085,,,,,,,
1504282492.959437,0.296518,0.354190,1.847745,0.279296,-0.150958,-0.142443,0.274055,-0.346831,-0.896996,-0.131294,-0.373811,0.231621,-11.741770,-35.270695,-32.258331,,,,,,,
1504282492.969447,0.296317,0.356229,1.845579,0.239262,-0.079247,-0.129830,0.273668,-0.348742,-0.896373,-0.129991,-0.375989,0.330928,-11.741770,-35.270695,-32.258331,,,,,,,
1504282492.979457,0.296465,0.357583,1.843877,0.155197,-0.038083,-0.108700,0.273662,-0.350011,-0.895880,-0.140194,-0.382914,0.307165,-11.891809,-35.121815,-32.034821,,,,,,,
1504282492.989466,0.296329,0.358234,1.842491,0.083372,-0.077989,-0.104484,0.273473,-0.350621,-0.895699,-0.154241,-0.368603,0.233514,-11.891809,-35.121815,-32.034821,,,,,,,
1504282492.999476,0.295358,0.358307,1.841235,0.029373,-0.164914,-0.112964,0.272596,-0.350689,-0.895940,-0.123762,-0.366565,0.198308,-11.666651,-35.046253,-31.809875,,,,,,,
1504282493.009486,0.293731,0.357865,1.839944,-0.019997,-0.214569,-0.134310,0.271183,-0.350275,-0.896530,-0.122349,-0.367330,0.207733,-11.666651,-35.046253,-31.809875,,,,,,,
1504282493.019496,0.292213,0.356883,1.838504,-0.067686,-0.192833,-0.164318,0.269921,-0.349356,-0.897270,-0.122368,-0.360758,0.224357,-11.665857,-35.495808,-32.031464,,,,,,,
1504282493.029505,0.291239,0.355466,1.836994,-0.102358,-0.134989,-0.179424,0.269189,-0.348027,-0.898006,-0.128289,-0.362605,0.232631,-11.665857,-35.495808,-32.031464,,,,,,,
1504282493.039515,0.290746,0.353873,1.835538,-0.115910,-0.091195,-0.173120,0.268905,-0.346534,-0.898668,-0.137679,-0.370813,0.244127,-11.891245,-35.346821,-32.033142,,,,,,,
1504282493.049525,0.290521,0.352456,1.834164,-0.090137,-0.063712,-0.162450,0.268842,-0.345204,-0.899198,-0.141462,-0.378429,0.250395,-11.891245,-35.346821,-32.033142,,,,,,,
1504282493.059535,0.290545,0.351455,1.832776,-0.047330,-0.039569,-0.149610,0.268963,-0.344264,-0.899523,-0.133969,-0.381261,0.261369,-11.516886,-35.045277,-31.959503,,,,,,,
1504282493.069545,0.290733,0.350911,1.831428,-0.005654,-0.020750,-0.132492,0.269186,-0.343754,-0.899651,-0.134451,-0.385128,0.266534,-11.516886,-35.045277,-31.959503,,,,,,,
1504282493.079554,0.291182,0.350745,1.830131,0.027622,0.013061,-0.118618,0.269606,-0.343598,-0.899585,-0.142653,-0.386032,0.261569,-11.667215,-34.821247,-31.811554,,,,,,,
1504282493.089564,0.292253,0.350952,1.828721,0.070798,0.073448,-0.121852,0.270549,-0.343792,-0.899227,-0.147914,-0.376972,0.261380,-11.667215,-34.821247,-31.811554,,,,,,,
1504282493.099574,0.293947,0.351483,1.827122,0.100060,0.124366,-0.131497,0.272019,-0.344290,-0.898593,-0.150651,-0.373620,0.273471,-11.891428,-35.047565,-31.660400,,,,,,,
1504282493.109584,0.296001,0.352095,1.825298,0.110992,0.144543,-0.151795,0.273803,-0.344865,-0.897831,-0.155929,-0.373641,0.264332,-11.891428,-35.047565,-31.660400,,,,,,,
1504282493.119593,0.298099,0.352605,1.823166,0.106798,0.131827,-0.187004,0.275634,-0.345344,-0.897086,-0.145675,-0.361184,0.244391,-11.515863,-35.495121,-32.031097,,,,,,,
1504282493.129603,0.299965,0.352912,1.820770,0.091683,0.093617,-0.212580,0.277276,-0.345632,-0.896469,-0.142159,-0.361125,0.225876,-11.515863,-35.495121,-32.031097,,,,,,,
1504282493.139613,0.301345,0.352986,1.818211,0.072098,0.034125,-0.231723,0.278505,-0.345701,-0.896061,-0.145967,-0.370501,0.209141,-11.291315,-35.269260,-31.957245,,,,,,,
1504282493.149623,0.302042,0.352792,1.815551,0.050236,-0.041336,-0.247638,0.279150,-0.345520,-0.895931,-0.140814,-0.370041,0.192363,-11.291315,-35.269260,-31.957245,,,,,,,
1504282493.159602,0.301940,0.352337,1.812877,0.025091,-0.121043,-0.253946,0.279105,-0.345092,-0.896109,-0.133536,-0.366242,0.180823,-11.216425,-35.268787,-32.032043,,,,,,,
1504282493.169612,0.301079,0.351629,1.810259,-0.002164,-0.194343,-0.254931,0.278405,-0.344428,-0.896582,-0.133676,-0.371942,0.173926,-11.216425,-35.268787,-32.032043,,,,,,,
1504282493.179621,0.299518,0.350666,1.807673,-0.025067,-0.261280,-0.262325,0.277104,-0.343524,-0.897332,-0.126408,-0.369931,0.171639,-11.214624,-35.719669,-31.578674,,,,,,,
1504282493.189631,0.297359,0.349539,1.805041,-0.038313,-0.321901,-0.270780,0.275279,-0.342465,-0.898298,-0.119471,-0.368747,0.173689,-11.214624,-35.719669,-31.578674,,,,,,,
1504282493.199641,0.294662,0.348349,1.802354,-0.040838,-0.374089,-0.276029,0.272973,-0.341346,-0.899427,-0.116738,-0.373940,0.182279,-11.065226,-35.568699,-31.729431,,,,,,,
1504282493.209651,0.291531,0.347104,1.799679,-0.048616,-0.413451,-0.277041,0.270278,-0.340176,-0.900683,-0.116164,-0.375217,0.189715,-11.065226,-35.568699,-31.729431,,,,,,,
1504282493.219661,0.288072,0.345783,1.797022,-0.058436,-0.440011,-0.275944,0.267288,-0.338933,-0.902043,-0.117508,-0.379039,0.196660,-10.990381,-35.418659,-31.580383,,,,,,,
1504282493.229670,0.284457,0.344379,1.794379,-0.067054,-0.451660,-0.278073,0.264159,-0.337612,-0.903459,-0.114653,-0.380161,0.203096,-10.990381,-35.418659,-31.580383,,,,,,,
1504282493.239680,0.280893,0.342895,1.791811,-0.077627,-0.435595,-0.271715,0.261076,-0.336215,-0.904875,-0.116773,-0.384137,0.211485,-11.439692,-35.645832,-31.504791,,,,,,,
1504282493.249690,0.277652,0.341380,1.789351,-0.082688,-0.396135,-0.263254,0.258281,-0.334788,-0.906205,-0.118328,-0.386724,0.222337,-11.439692,-35.645832,-31.504791,,,,,,,
1504282493.259700,0.274859,0.339917,1.786962,-0.078046,-0.343968,-0.254799,0.255882,-0.333409,-0.907394,-0.117057,-0.386211,0.233932,-11.814737,-35.722218,-31.655151,,,,,,,
1504282493.269709,0.272615,0.338608,1.784543,-0.059492,-0.291906,-0.254858,0.253962,-0.332174,-0.908385,-0.113001,-0.382624,0.242934,-11.814737,-35.722218,-31.655151,,,,,,,
1504282493.279719,0.270896,0.337558,1.782004,-0.028151,-0.245272,-0.260223,0.252494,-0.331184,-0.909156,-0.110449,-0.379158,0.245871,-11.514246,-35.646778,-31.204956,,,,,,,
1504282493.289729,0.269647,0.336863,1.779222,0.014902,-0.208314,-0.276225,0.251419,-0.330528,-0.909692,-0.109330,-0.375725,0.245340,-11.514246,-35.646778,-31.204956,,,,,,,
1504282493.299739,0.268847,0.336554,1.776068,0.060085,-0.177757,-0.301818,0.250718,-0.330236,-0.909991,-0.106477,-0.373347,0.245288,-11.739176,-35.722630,-31.279938,,,,,,,
1504282493.309748,0.268404,0.336589,1.772452,0.104152,-0.159967,-0.338065,0.250312,-0.330270,-0.910091,-0.101783,-0.367286,0.244274,-11.739176,-35.722630,-31.279938,,,,,,,
1504282493.319758,0.268310,0.336909,1.768400,0.139698,-0.135721,-0.366866,0.250198,-0.330572,-0.910013,-0.096466,-0.364039,0.243692,-11.588755,-35.797260,-31.128998,,,,,,,
1504282493.329768,0.268717,0.337352,1.764060,0.154013,-0.092130,-0.386131,0.250530,-0.330990,-0.909769,-0.099163,-0.366413,0.246043,-11.588755,-35.797260,-31.128998,,,,,,,
1504282493.339778,0.269621,0.337783,1.759579,0.152309,-0.046281,-0.399024,0.251314,-0.331396,-0.909405,-0.101305,-0.371607,0.245450,-11.063608,-35.944599,-31.276581,,,,,,,
1504282493.349787,0.270853,0.338200,1.754946,0.158930,-0.028205,-0.413988,0.252398,-0.331789,-0.908962,-0.098009,-0.373518,0.241985,-11.063608,-35.944599,-31.276581,,,,,,,
1504282493.359797,0.272134,0.338642,1.750045,0.170710,-0.039995,-0.441699,0.253522,-0.332207,-0.908496,-0.090131,-0.366219,0.242053,-10.913157,-36.168781,-31.349548,,,,,,,
1504282493.369807,0.273322,0.339147,1.744688,0.189911,-0.067813,-0.485380,0.254556,-0.332683,-0.908033,-0.081597,-0.359548,0.238309,-10.913157,-36.168781,-31.349548,,,,,,,
1504282493.379786,0.274299,0.339674,1.738640,0.210138,-0.115861,-0.553574,0.255395,-0.333180,-0.907615,-0.076623,-0.352352,0.231986,-10.387262,-36.391865,-31.121552,,,,,,,
1504282493.389796,0.275092,0.340230,1.731692,0.236850,-0.162881,-0.636702,0.256065,-0.333703,-0.907234,-0.070793,-0.342307,0.226615,-10.387262,-36.391865,-31.121552,,,,,,,
1504282493.399806,0.275873,0.340772,1.723834,0.257324,-0.187475,-0.716679,0.256723,-0.334215,-0.906859,-0.069574,-0.342329,0.229628,-10.161539,-36.541309,-30.894867,,,,,,,
1504282493.409816,0.276863,0.341219,1.715358,0.260819,-0.179996,-0.763652,0.257581,-0.334637,-0.906461,-0.066449,-0.347950,0.231747,-10.161539,-36.541309,-30.894867,,,,,,,
1504282493.419825,0.278134,0.341623,1.706867,0.255687,-0.147996,-0.753043,0.258695,-0.335017,-0.906002,-0.065794,-0.362524,0.234295,-10.160761,-36.766605,-30.743164,,,,,,,
1504282493.429835,0.279649,0.342066,1.698742,0.252559,-0.114977,-0.714680,0.260026,-0.335434,-0.905467,-0.077058,-0.378128,0.233516,-9.560007,-37.063908,-30.739441,,,,,,,
1504282493.439845,0.281319,0.342636,1.690860,0.263313,-0.091643,-0.694422,0.261485,-0.335971,-0.904848,-0.084972,-0.387204,0.233781,-9.560007,-37.063908,-30.739441,,,,,,,
1504282493.449855,0.283011,0.362637,1.682951,0.274361,-0.075782,-0.708271,0.261088,-0.354741,-0.897771,-0.075174,-0.362605,0.230794,-9.560007,-37.063908,-30.739441,,,,,,,
1504282493.459864,0.285166,0.374711,1.674609,0.285501,-0.055615,-0.748826,0.261797,-0.366003,-0.893031,-0.078005,-0.349527,0.227808,-9.483194,-37.514469,-30.285889,,,,,,,
1504282493.469874,0.287805,0.380467,1.665569,0.300970,-0.037571,-0.817134,0.263550,-0.371354,-0.890302,-0.092881,-0.345214,0.229688,-9.483194,-37.514469,-30.285889,,,,,,,
1504282493.479884,0.291222,0.382125,1.655451,0.302685,-0.022563,-0.920693,0.266414,-0.372893,-0.888805,-0.098461,-0.329225,0.234554,-8.957529,-37.737263,-30.207886,,,,,,,
1504282493.489894,0.295322,0.382676,1.643998,0.309828,-0.012895,-1.053054,0.269996,-0.373404,-0.887509,-0.100959,-0.308847,0.229138,-8.957529,-37.737263,-30.207886,,,,,,,
1504282493.499903,0.300081,0.382678,1.631014,0.320235,-0.003241,-1.198219,0.274216,-0.373406,-0.886213,-0.104706,-0.300422,0.227461,-8.281244,-38.109684,-29.978424,,,,,,,
1504282493.509913,0.305612,0.382307,1.616474,0.340350,0.019122,-1.344457,0.279155,-0.373062,-0.884815,-0.112682,-0.299912,0.234714,-7.380808,-38.106236,-29.676178,,,,,,,
1504282493.519923,0.311929,0.381537,1.600410,0.359381,0.041490,-1.487495,0.284828,-0.372348,-0.883307,-0.119254,-0.294050,0.238058,-7.380808,-38.106236,-29.676178,,,,,,,
1504282493.529933,0.318978,0.380467,1.582897,0.386850,0.059513,-1.617701,0.291172,-0.371354,-0.881655,-0.115848,-0.291427,0.239702,-7.380808,-38.106236,-29.676178,,,,,,,
1504282493.539942,0.326558,0.378946,1.564009,0.418381,0.056186,-1.741459,0.298027,-0.369941,-0.879957,-0.118370,-0.290246,0.240491,-6.404825,-38.402149,-29.521515,,,,,,,
1504282493.549952,0.334198,0.377178,1.543865,0.447337,0.004915,-1.853396,0.304955,-0.368298,-0.878270,-0.110756,-0.290042,0.230260,-6.404825,-38.402149,-29.521515,,,,,,,
1504282493.559962,0.341344,0.375262,1.522600,0.484388,-0.093323,-1.952427,0.311459,-0.366516,-0.876732,-0.104672,-0.293732,0.207558,-4.978418,-38.920902,-29.439056,,,,,,,
1504282493.569972,0.347764,0.373331,1.499970,0.544867,-0.215166,-2.080196,0.317322,-0.364719,-0.875378,-0.108002,-0.289151,0.192837,-4.001352,-39.517262,-29.057159,,,,,,,
1504282493.579982,0.353471,0.371544,1.475673,0.633072,-0.344687,-2.217509,0.322538,-0.363054,-0.874163,-0.085157,-0.282087,0.185870,-4.001352,-39.517262,-29.057159,,,,,,,
1504282493.589991,0.358507,0.370124,1.449963,0.722330,-0.450816,-2.314301,0.327116,-0.361731,-0.873010,-0.060728,-0.275766,0.191049,-2.425226,-39.735935,-28.676575,,,,,,,
1504282493.599971,0.362994,0.369098,1.423490,0.791258,-0.524875,-2.348208,0.331162,-0.360774,-0.871880,-0.056061,-0.280232,0.200523,-2.425226,-39.735935,-28.676575,,,,,,,
1504282493.609980,0.366871,0.368514,1.396955,0.838682,-0.581770,-2.321340,0.334615,-0.360230,-0.870786,-0.044179,-0.302917,0.210858,-0.998850,-40.105122,-28.370270,,,,,,,
1504282493.619990,0.370109,0.368290,1.370753,0.864729,-0.632115,-2.276376,0.337462,-0.360021,-0.869773,-0.041441,-0.324244,0.222007,-0.998850,-40.105122,-28.370270,,,,,,,
1504282493.630000,0.372672,0.368317,1.344843,0.884352,-0.691985,-2.242079,0.339687,-0.360046,-0.868896,-0.026393,-0.326523,0.227248,0.353628,-40.550846,-27.463501,,,,,,,
1504282493.640010,0.374514,0.368578,1.319060,0.907184,-0.761455,-2.224838,0.341252,-0.360289,-0.868181,-0.002873,-0.318300,0.230349,0.353628,-40.550846,-27.463501,,,,,,,
1504282493.650019,0.375773,0.368992,1.293433,0.916300,-0.806312,-2.199126,0.342290,-0.360676,-0.867612,0.020762,-0.316113,0.240506,1.405386,-40.847477,-26.783661,,,,,,,
1504282493.660029,0.376814,0.369551,1.268117,0.920380,-0.808512,-2.164958,0.343118,-0.361197,-0.867068,0.034430,-0.317087,0.247485,1.405386,-40.847477,-26.783661,,,,,,,
1504282493.670039,0.377857,0.370159,1.243231,0.906456,-0.789260,-2.123388,0.343942,-0.361764,-0.866505,0.041800,-0.311896,0.261708,1.405386,-40.847477,-26.783661,,,,,,,
1504282493.680049,0.378914,0.370699,1.218702,0.888265,-0.780611,-2.098884,0.344785,-0.362267,-0.865959,0.046466,-0.315238,0.259789,2.831854,-41.291523,-26.551758,,,,,,,
1504282493.690058,0.379755,0.371062,1.194345,0.865624,-0.806005,-2.092474,0.345464,-0.362606,-0.865547,0.053583,-0.311283,0.256675,4.108389,-41.586842,-26.021332,,,,,,,
1504282493.700068,0.380157,0.371122,1.170222,0.826861,-0.842994,-2.080734,0.345804,-0.362661,-0.865388,0.069082,-0.318751,0.253022,4.108389,-41.586842,-26.021332,,,,,,,
1504282493.710078,0.380162,0.370749,1.146442,0.773278,-0.863879,-2.066914,0.345859,-0.362314,-0.865511,0.071820,-0.322211,0.254382,5.084875,-41.733952,-25.267822,,,,,,,
1504282493.720088,0.380044,0.369858,1.122891,0.718919,-0.862357,-2.075551,0.345876,-0.361483,-0.865852,0.068720,-0.306822,0.259575,5.084875,-41.733952,-25.267822,,,,,,,
1504282493.730098,0.379952,0.368404,1.099221,0.671079,-0.864055,-2.112989,0.345992,-0.360127,-0.866371,0.076341,-0.285915,0.270256,6.135366,-41.879383,-25.189087,,,,,,,
1504282493.740107,0.379752,0.366171,1.075236,0.608254,-0.891172,-2.181364,0.346116,-0.358043,-0.867185,0.086883,-0.242086,0.268796,6.135366,-41.879383,-25.189087,,,,,,,
1504282493.750105,0.378545,0.364185,1.050202,0.718257,-1.061425,-2.261996,0.345331,-0.356188,-0.868261,0.104880,-0.140486,0.232198,7.261221,-41.950230,-24.735779,,,,,,,
1504282493.760115,0.376291,0.362736,1.024119,0.761550,-1.159747,-2.328994,0.343562,-0.354834,-0.869516,0.112691,-0.192667,0.186960,7.261221,-41.950230,-24.735779,,,,,,,
1504282493.770125,0.374330,0.360770,0.997706,0.711937,-1.128377,-2.385708,0.342111,-0.352994,-0.870836,0.127402,-0.233447,0.175768,7.261221,-41.950230,-24.735779,,,,,,,
1504282493.780134,0.371959,0.358269,0.970887,0.674274,-1.198346,-2.433682,0.340365,-0.350654,-0.872464,0.128492,-0.262795,0.216062,8.762335,-42.169224,-24.355347,,,,,,,
1504282493.790144,0.368686,0.355849,0.944134,0.686315,-1.283710,-2.417500,0.337812,-0.348386,-0.874363,0.133455,-0.222903,0.234546,10.035894,-41.638355,-24.431122,,,,,,,
1504282493.800154,0.364708,0.354034,0.917233,0.752010,-1.343919,-2.422617,0.334556,-0.346685,-0.876289,0.137520,-0.218562,0.237876,10.035894,-41.638355,-24.431122,,,,,,,
1504282493.810164,0.360360,0.352911,0.889861,0.824238,-1.395644,-2.440547,0.330880,-0.345631,-0.878099,0.152000,-0.242962,0.227785,11.311346,-41.633213,-24.127991,,,,,,,
1504282493.820143,0.355532,0.352551,0.862248,0.888875,-1.447332,-2.433939,0.326679,-0.345293,-0.879803,0.174450,-0.242460,0.208462,11.311346,-41.633213,-24.127991,,,,,,,
1504282493.830153,0.349941,0.352407,0.834979,0.833591,-1.523654,-2.381598,0.321772,-0.345158,-0.881662,0.180822,-0.239910,0.190271,11.311346,-41.633213,-24.127991,,,,,,,
1504282493.840162,0.342205,0.349324,0.810563,0.379453,-1.643689,-2.222062,0.315298,-0.342262,-0.885123,0.184564,-0.267937,0.192054,12.435690,-41.328312,-24.052460,,,,,,,
1504282493.850172,0.332058,0.344475,0.788009,0.217569,-1.825720,-2.144102,0.306839,-0.337702,-0.889835,0.237671,-0.271001,0.228687,13.484961,-41.173130,-24.276001,,,,,,,
1504282493.860182,0.320009,0.339845,0.765910,0.246004,-1.983700,-2.108549,0.296584,-0.333341,-0.894942,0.278428,-0.275516,0.228240,13.484961,-41.173130,-24.276001,,,,,,,
1504282493.870192,0.305838,0.335942,0.745104,0.215156,-2.133871,-1.939689,0.284262,-0.329659,-0.900289,0.312906,-0.271492,0.204183,14.157431,-40.344501,-24.580536,,,,,,,
1504282493.880201,0.289872,0.332443,0.726219,0.186712,-2.243580,-1.760221,0.270180,-0.326353,-0.905813,0.358040,-0.275652,0.210317,14.157431,-40.344501,-24.580536,,,,,,,
1504282493.890211,0.271935,0.329520,0.709357,0.148249,-2.369524,-1.568075,0.254145,-0.323589,-0.911428,0.396566,-0.327427,0.214879,14.155478,-39.968159,-25.258392,,,,,,,
1504282493.900221,0.252924,0.326578,0.693248,0.096375,-2.436256,-1.542430,0.237010,-0.320804,-0.917012,0.427389,-0.350598,0.220098,14.155478,-39.968159,-25.258392,,,,,,,
1504282493.910231,0.233438,0.322725,0.677077,-0.045499,-2.462743,-1.590662,0.219381,-0.317152,-0.922652,0.397806,-0.406161,0.259383,14.153143,-39.441807,-25.937317,,,,,,,
1504282493.920241,0.214603,0.317683,0.660539,-0.170301,-2.368935,-1.660425,0.202303,-0.312367,-0.928171,0.357603,-0.358486,0.301553,14.153143,-39.441807,-25.937317,,,,,,,
1504282493.930250,0.197958,0.311717,0.643257,-0.272628,-2.144225,-1.748525,0.187190,-0.306693,-0.933220,0.311147,-0.321572,0.357826,14.001028,-38.916431,-26.466675,,,,,,,
1504282493.940260,0.183547,0.304537,0.624831,-0.416461,-1.953195,-1.911356,0.174120,-0.299851,-0.937961,0.263929,-0.310027,0.388233,14.001028,-38.916431,-26.466675,,,,,,,
1504282493.950270,0.171379,0.295425,0.605196,-0.621103,-1.749961,-2.056169,0.163153,-0.291146,-0.942664,0.241723,-0.336158,0.383383,14.001028,-38.916431,-26.466675,,,,,,,
1504282493.960280,0.161679,0.283744,0.583236,-0.847548,-1.548549,-2.324834,0.154539,-0.279952,-0.947494,0.308214,-0.278184,0.287002,14.597540,-38.236332,-27.670258,,,,,,,
1504282493.970289,0.153885,0.270521,0.559029,-0.962624,-1.410957,-2.563307,0.147704,-0.267233,-0.952245,0.409180,-0.313059,0.201116,15.042150,-36.806919,-28.879883,,,,,,,
1504282493.980299,0.146856,0.256996,0.532743,-0.943336,-1.387472,-2.756515,0.141523,-0.254176,-0.956747,0.362688,-0.386418,0.183951,15.042150,-36.806919,-28.879883,,,,,,,
1504282493.990309,0.139737,0.244494,0.504372,-0.801871,-1.425738,-2.944065,0.135141,-0.242066,-0.960802,0.339484,-0.392456,0.166979,16.162542,-35.599766,-29.936127,,,,,,,
1504282494.000319,0.132162,0.233647,0.473498,-0.621076,-1.512230,-3.179495,0.128197,-0.231527,-0.964345,0.382682,-0.401072,0.169697,16.162542,-35.599766,-29.936127,,,,,,,
1504282494.010328,0.124259,0.224608,0.439384,-0.420529,-1.577495,-3.490714,0.120826,-0.222724,-0.967365,0.430306,-0.400018,0.176487,17.132757,-34.094028,-30.619995,,,,,,,
1504282494.020338,0.116645,0.217490,0.401591,-0.210872,-1.586331,-3.826567,0.113639,-0.215779,-0.969807,0.464562,-0.403789,0.220539,17.132757,-34.094028,-30.619995,,,,,,,
1504282494.030348,0.110042,0.212829,0.360043,0.033136,-1.569877,-4.163471,0.107342,-0.211226,-0.971525,0.487506,-0.431794,0.306501,18.627615,-32.585484,-31.527588,,,,,,,
1504282494.040358,0.103920,0.210630,0.314879,0.282017,-1.602496,-4.486404,0.101441,-0.209076,-0.972624,0.479507,-0.468140,0.352476,18.627615,-32.585484,-31.527588,,,,,,,
1504282494.050337,0.096752,0.210531,0.266957,0.462911,-1.797704,-4.701360,0.094468,-0.208979,-0.973347,0.457732,-0.507910,0.364887,20.197485,-30.852362,-32.061646,,,,,,,
1504282494.060347,0.086967,0.211925,0.217307,0.635195,-2.099458,-4.858505,0.084915,-0.210342,-0.973933,0.397004,-0.597046,0.316584,20.197485,-30.852362,-32.061646,,,,,,,
1504282494.070357,0.074159,0.216151,0.165766,0.900879,-2.463785,-5.017513,0.072367,-0.214472,-0.974046,0.349783,-0.665747,0.316941,21.317816,-29.346106,-32.670135,,,,,,,
1504282494.080366,0.059177,0.223665,0.113008,1.150142,-2.700181,-5.102056,0.057669,-0.221805,-0.973384,0.368082,-0.664486,0.407527,21.317816,-29.346106,-32.670135,,,,,,,
1504282494.090376,0.043716,0.234360,0.059165,1.320588,-2.798450,-5.206191,0.042507,-0.232221,-0.971734,0.298999,-0.655047,0.459939,21.317816,-29.346106,-32.670135,,,,,,,
1504282494.100386,0.029615,0.246634,0.003738,1.348679,-2.724988,-5.372783,0.028714,-0.244141,-0.969315,0.262423,-0.624618,0.450119,21.987494,-27.766272,-33.580322,,,,,,,
1504282494.110396,0.018660,0.259578,-0.054044,1.287336,-2.539895,-5.612309,0.018034,-0.256673,-0.966330,0.284945,-0.575969,0.442587,22.507589,-26.262411,-34.340271,,,,,,,
1504282494.120405,0.010835,0.271015,-0.114745,1.210611,-2.314110,-5.911713,0.010439,-0.267710,-0.963443,0.301389,-0.536337,0.436832,22.507589,-26.262411,-34.340271,,,,,,,
1504282494.130415,0.006940,0.282371,-0.178707,1.183068,-2.078071,-6.215320,0.006665,-0.278633,-0.960374,0.322726,-0.501198,0.432771,23.625921,-24.005987,-35.029419,,,,,,,
1504282494.140425,0.006905,0.293862,-0.246393,1.196001,-1.881739,-6.568953,0.006609,-0.289650,-0.957110,0.342619,-0.480125,0.441317,23.625921,-24.005987,-35.029419,,,,,,,
1504282494.150435,0.010228,0.305480,-0.318540,1.229859,-1.775028,-6.983235,0.009754,-0.300751,-0.953653,0.336330,-0.459259,0.453500,23.625921,-24.005987,-35.029419,,,,,,,
1504282494.160444,0.016252,0.317697,-0.394938,1.354607,-1.732010,-7.325731,0.015438,-0.312379,-0.949832,0.296451,-0.418364,0.450274,24.744207,-21.824286,-35.867981,,,,,,,
1504282494.170454,0.023954,0.331389,-0.474340,1.577209,-1.777316,-7.534476,0.022648,-0.325357,-0.945320,0.247570,-0.404883,0.435783,25.560797,-18.744665,-36.339081,,,,,,,
1504282494.180464,0.032099,0.346637,-0.555767,1.784560,-1.938741,-7.652314,0.030185,-0.339737,-0.940036,0.199521,-0.450775,0.409305,25.560797,-18.744665,-36.339081,,,,,,,
1504282494.190474,0.039701,0.362619,-0.638744,1.897160,-2.182544,-7.729609,0.037110,-0.354724,-0.934234,0.142837,-0.477246,0.359817,25.560797,-18.744665,-36.339081,,,,,,,
1504282494.200483,0.046583,0.378535,-0.722887,1.932885,-2.408706,-7.767575,0.043270,-0.369560,-0.928199,0.079121,-0.479164,0.315620,26.152929,-16.190008,-37.331696,,,,,,,
1504282494.210493,0.053192,0.394035,-0.807985,1.941232,-2.585631,-7.799271,0.049093,-0.383917,-0.922061,0.073298,-0.464807,0.309482,26.152929,-16.190008,-37.331696,,,,,,,
1504282494.220503,0.060052,0.409331,-0.894110,1.991621,-2.703238,-7.822458,0.055058,-0.397996,-0.915734,-0.051701,-0.471587,0.303780,25.543844,-13.340155,-38.629639,,,,,,,
1504282494.230513,0.068020,0.425389,-0.980576,2.154611,-2.693992,-7.757081,0.061911,-0.412675,-0.908772,-0.129507,-0.440337,0.305775,24.186026,-10.943823,-39.850983,,,,,,,
1504282494.240523,0.078153,0.443291,-1.066420,2.419441,-2.553570,-7.577546,0.070527,-0.428915,-0.900588,-0.208909,-0.403086,0.314742,24.186026,-10.943823,-39.850983,,,,,,,
1504282494.250532,0.091265,0.462988,-1.150575,2.651595,-2.297902,-7.293665,0.081543,-0.446624,-0.890998,-0.284607,-0.378923,0.308570,24.186026,-10.943823,-39.850983,,,,,,,
1504282494.260542,0.108482,0.483595,-1.233169,2.813172,-1.952103,-7.047425,0.095854,-0.464965,-0.880125,-0.349654,-0.363115,0.269224,22.680929,-9.673025,-41.139252,,,,,,,
1504282494.270521,0.130192,0.503803,-1.314615,2.859637,-1.601078,-6.816338,0.113695,-0.482759,-0.868342,-0.433763,-0.334303,0.196146,21.477316,-8.776617,-42.049011,,,,,,,
1504282494.280531,0.155203,0.522322,-1.394334,2.796124,-1.360026,-6.530809,0.133969,-0.498894,-0.856246,-0.506253,-0.340660,0.082519,21.477316,-8.776617,-42.049011,,,,,,,
1504282494.290541,0.181388,0.538558,-1.471589,2.685297,-1.278458,-6.213059,0.154860,-0.512899,-0.844366,-0.549422,-0.381282,-0.059901,20.575506,-8.554022,-42.877899,,,,,,,
1504282494.300551,0.206883,0.552376,-1.546131,2.546666,-1.343705,-5.903637,0.174862,-0.524711,-0.833128,-0.580105,-0.389916,-0.204043,20.575506,-8.554022,-42.877899,,,,,,,
1504282494.310560,0.230017,0.563482,-1.617606,2.341050,-1.516021,-5.598413,0.192747,-0.534133,-0.823135,-0.597990,-0.380494,-0.214036,20.575506,-8.554022,-42.877899,,,,,,,
1504282494.320570,0.250795,0.571673,-1.685716,2.102122,-1.591082,-5.304091,0.208714,-0.541040,-0.814687,-0.674977,-0.386801,-0.432765,19.748159,-8.106085,-43.708374,,,,,,,
1504282494.330580,0.270275,0.577020,-1.750582,1.851434,-1.571149,-5.066530,0.223768,-0.545529,-0.807667,-0.724073,-0.340992,-0.478404,18.547628,-8.260275,-44.310211,,,,,,,
1504282494.340590,0.288371,0.578729,-1.812756,1.506989,-1.592971,-4.922990,0.238080,-0.546961,-0.802591,-0.754529,-0.298132,-0.524237,18.547628,-8.260275,-44.310211,,,,,,,
1504282494.350599,0.305007,0.576388,-1.872615,1.156505,-1.609347,-4.843513,0.251782,-0.544999,-0.799738,-0.765805,-0.237853,-0.596029,16.970953,-8.040869,-45.065796,,,,,,,
1504282494.360609,0.320210,0.570144,-1.930741,0.821209,-1.639627,-4.836568,0.264977,-0.539753,-0.799033,-0.761513,-0.187817,-0.636758,16.970953,-8.040869,-45.065796,,,,,,,
1504282494.370619,0.334191,0.560069,-1.987744,0.525797,-1.659511,-4.894685,0.277892,-0.531245,-0.800347,-0.759215,-0.133535,-0.644813,15.919226,-7.669530,-45.596222,,,,,,,
1504282494.380629,0.347373,0.547295,-2.044162,0.372659,-1.636871,-4.959034,0.290704,-0.520379,-0.802930,-0.761193,-0.076133,-0.610522,15.919226,-7.669530,-45.596222,,,,,,,
1504282494.390638,0.360796,0.533383,-2.100323,0.376108,-1.503647,-5.009431,0.303982,-0.508449,-0.805651,-0.760220,-0.021397,-0.538862,15.919226,-7.669530,-45.596222,,,,,,,
1504282494.400648,0.376099,0.519501,-2.156616,0.491666,-1.213660,-5.038562,0.318837,-0.496447,-0.807393,-0.766911,0.047640,-0.446239,14.115744,-6.551748,-46.059082,,,,,,,
1504282494.410658,0.394445,0.506412,-2.212470,0.656862,-0.798433,-4.979233,0.336063,-0.485043,-0.807338,-0.791202,0.142254,-0.358387,12.914053,-6.106390,-46.440430,,,,,,,
1504282494.420668,0.415648,0.494224,-2.267292,0.806519,-0.424693,-4.865422,0.355465,-0.474349,-0.805381,-0.814617,0.196730,-0.287866,12.914053,-6.106390,-46.440430,,,,,,,
1504282494.430678,0.437961,0.482448,-2.320515,0.894867,-0.229496,-4.724715,0.375689,-0.463949,-0.802252,-0.843615,0.184958,-0.256402,12.537481,-5.657476,-46.744751,,,,,,,
1504282494.440687,0.459153,0.471384,-2.371821,1.013182,-0.256247,-4.530196,0.394855,-0.454120,-0.798664,-0.886890,0.124179,-0.250652,12.537481,-5.657476,-46.744751,,,,,,,
1504282494.450697,0.477230,0.461995,-2.420958,1.187351,-0.460419,-4.266953,0.411168,-0.445734,-0.795149,-0.918645,0.049220,-0.246828,12.612967,-5.807287,-46.668427,,,,,,,
1504282494.460707,0.491562,0.454872,-2.467906,1.378188,-0.703109,-3.984400,0.424009,-0.439347,-0.791954,-0.938413,0.042969,-0.245674,12.612967,-5.807287,-46.668427,,,,,,,
1504282494.470717,0.502809,0.450210,-2.513022,1.572790,-0.887203,-3.721157,0.433871,-0.435155,-0.788921,-0.948215,0.070760,-0.224599,11.863714,-6.110662,-46.668030,,,,,,,
1504282494.480726,0.512010,0.447837,-2.556505,1.729752,-0.985721,-3.475209,0.441617,-0.433017,-0.785793,-0.949429,0.142154,-0.205631,11.863714,-6.110662,-46.668030,,,,,,,
1504282494.490706,0.519713,0.447191,-2.598200,1.811332,-1.045244,-3.241202,0.447795,-0.432434,-0.782611,-0.960903,0.263520,-0.212613,11.115088,-7.012823,-47.263153,,,,,,,
1504282494.500715,0.526200,0.447779,-2.637788,1.835564,-1.064878,-2.996690,0.452735,-0.432964,-0.779470,-0.979850,0.377682,-0.248729,11.115088,-7.012823,-47.263153,,,,,,,
1504282494.510725,0.531803,0.449413,-2.674793,1.813120,-1.034073,-2.725663,0.456735,-0.434437,-0.776310,-1.004877,0.417118,-0.283641,10.067434,-7.992391,-47.333435,,,,,,,
1504282494.520735,0.536966,0.451650,-2.708637,1.712269,-0.920594,-2.431435,0.460239,-0.436450,-0.773105,-1.041996,0.367572,-0.314908,10.067434,-7.992391,-47.333435,,,,,,,
1504282494.530745,0.542984,0.454166,-2.738801,1.574253,-0.637402,-2.115155,0.464314,-0.438713,-0.769378,-1.090398,0.297417,-0.327012,9.395742,-9.270590,-47.250488,,,,,,,
1504282494.540754,0.550940,0.457285,-2.765032,1.464479,-0.264977,-1.756287,0.469703,-0.441513,-0.764490,-1.130622,0.219651,-0.297750,9.395742,-9.270590,-47.250488,,,,,,,
1504282494.550764,0.560569,0.461415,-2.787222,1.377617,0.050760,-1.375932,0.476068,-0.445216,-0.758381,-1.143518,0.159129,-0.287426,9.322821,-10.095922,-47.244507,,,,,,,
1504282494.560774,0.570610,0.466747,-2.805436,1.304530,0.222526,-0.993164,0.482370,-0.449984,-0.751554,-1.132272,0.153857,-0.316317,9.322821,-10.095922,-47.244507,,,,,,,
1504282494.570784,0.579326,0.473600,-2.820155,1.281064,0.173340,-0.645145,0.487202,-0.456093,-0.744724,-1.091984,0.176765,-0.363324,9.926397,-11.293982,-46.859009,,,,,,,
1504282494.580794,0.584458,0.481545,-2.831618,1.201771,-0.079936,-0.340626,0.489003,-0.463149,-0.739168,-1.015645,0.195525,-0.439009,9.926397,-11.293982,-46.859009,,,,,,,
1504282494.590803,0.585915,0.490068,-2.840216,1.098512,-0.307363,-0.109845,0.487879,-0.470686,-0.735138,-0.935969,0.245222,-0.517990,9.704031,-12.344992,-46.851685,,,,,,,
1504282494.600813,0.584770,0.498040,-2.846211,0.897424,-0.416674,0.029829,0.484950,-0.477704,-0.732545,-0.866633,0.270856,-0.536849,9.704031,-12.344992,-46.851685,,,,,,,
1504282494.610823,0.582800,0.504285,-2.849871,0.628875,-0.340996,0.086870,0.481855,-0.483182,-0.730993,-0.809690,0.283658,-0.519587,9.556479,-13.320669,-46.844727,,,,,,,
1504282494.620833,0.581856,0.508509,-2.851752,0.385111,-0.131205,0.095684,0.480039,-0.486875,-0.729737,-0.770810,0.284589,-0.463882,9.556479,-13.320669,-46.844727,,,,,,,
1504282494.630842,0.582237,0.510942,-2.852367,0.188142,0.047318,0.084354,0.479664,-0.488999,-0.728562,-0.725468,0.250123,-0.402251,9.332952,-13.772131,-46.616913,,,,,,,
1504282494.640852,0.583251,0.512236,-2.852314,0.086276,0.109974,0.072326,0.480053,-0.490127,-0.727546,-0.667843,0.205582,-0.361565,9.332952,-13.772131,-46.616913,,,,,,,
1504282494.650862,0.583427,0.513257,-2.852113,0.079942,-0.015713,0.071469,0.479906,-0.491017,-0.727044,-0.601732,0.177419,-0.340095,9.332846,-13.771978,-46.691925,,,,,,,
1504282494.660872,0.581543,0.514472,-2.852183,0.111189,-0.253584,0.056999,0.478207,-0.492075,-0.727448,-0.532086,0.182383,-0.346283,9.332846,-13.771978,-46.691925,,,,,,,
1504282494.670881,0.577620,0.515750,-2.852664,0.135277,-0.462608,0.026455,0.475006,-0.493187,-0.728791,-0.480957,0.225609,-0.347869,9.032583,-13.847738,-46.992096,,,,,,,
1504282494.680891,0.572556,0.516857,-2.853382,0.118647,-0.556218,0.002041,0.471013,-0.494150,-0.730727,-0.454091,0.273706,-0.330247,9.032583,-13.847738,-46.992096,,,,,,,
1504282494.690901,0.567632,0.517533,-2.853898,0.066905,-0.489724,0.000766,0.467229,-0.494738,-0.732756,-0.454244,0.309923,-0.303453,8.433065,-14.000586,-46.917450,,,,,,,
1504282494.700911,0.564004,0.517925,-2.853705,0.008401,-0.302814,0.050503,0.464464,-0.495078,-0.734283,-0.475770,0.315559,-0.264481,8.433065,-14.000586,-46.917450,,,,,,,
1504282494.710890,0.561952,0.518265,-2.852447,-0.039389,-0.090451,0.132236,0.462867,-0.495373,-0.735092,-0.494895,0.288708,-0.225999,8.432989,-13.925726,-46.843018,,,,,,,
1504282494.720900,0.561328,0.518920,-2.850065,-0.055460,0.100314,0.237545,0.462235,-0.495943,-0.735105,-0.498078,0.246767,-0.200625,8.432989,-13.925726,-46.843018,,,,,,,
1504282494.730909,0.561852,0.520282,-2.846902,-0.020656,0.236336,0.322757,0.462260,-0.497125,-0.734291,-0.479533,0.185556,-0.181938,8.433035,-14.075277,-47.066895,,,,,,,
1504282494.740919,0.563030,0.522169,-2.843690,0.023427,0.286044,0.334487,0.462623,-0.498762,-0.732951,-0.438392,0.116987,-0.175024,8.433035,-14.075277,-47.066895,,,,,,,
1504282494.750916,0.564740,0.524190,-2.841205,0.065440,0.296420,0.270498,0.463335,-0.500512,-0.731306,-0.398333,0.090417,-0.189288,8.508413,-14.224951,-47.065582,,,,,,,
1504282494.760926,0.567136,0.526070,-2.839792,0.101233,0.314333,0.181934,0.464580,-0.502139,-0.729399,-0.373546,0.107501,-0.204348,8.508413,-14.224951,-47.065582,,,,,,,
1504282494.770936,0.570290,0.527426,-2.839147,0.067905,0.366904,0.102796,0.466510,-0.503311,-0.727356,-0.365176,0.143539,-0.227280,8.883627,-14.223562,-46.914642,,,,,,,
1504282494.780945,0.574335,0.527263,-2.837820,-0.129375,0.507067,0.092600,0.469493,-0.503170,-0.725532,-0.387370,0.157085,-0.279748,8.883627,-14.223562,-46.914642,,,,,,,
1504282494.790955,0.578011,0.525740,-2.834642,-0.306914,0.504183,0.173420,0.472575,-0.501853,-0.724442,-0.445979,0.097343,-0.387725,9.108221,-14.147253,-47.064667,,,,,,,
1504282494.800965,0.578587,0.524781,-2.829630,-0.330231,0.243103,0.365972,0.473255,-0.501023,-0.724573,-0.485202,-0.010924,-0.388449,9.108221,-14.147253,-47.064667,,,,,,,
1504282494.810975,0.575644,0.524108,-2.821908,-0.461848,0.053236,0.566751,0.471304,-0.500441,-0.726244,-0.482764,-0.117097,-0.283720,9.332693,-14.070791,-47.289673,,,,,,,
1504282494.820984,0.570877,0.521935,-2.811414,-0.755677,0.060884,0.663362,0.468423,-0.498558,-0.729397,-0.464562,-0.126198,-0.365849,9.332693,-14.070791,-47.289673,,,,,,,
1504282494.830994,0.566138,0.516820,-2.798804,-1.100206,0.186298,0.631589,0.466323,-0.494118,-0.733751,-0.438155,-0.041282,-0.504195,9.181189,-13.471457,-47.294556,,,,,,,
1504282494.841004,0.562358,0.509062,-2.785952,-1.286646,0.264706,0.488096,0.465576,-0.487358,-0.738729,-0.386657,0.090355,-0.564051,9.181189,-13.471457,-47.294556,,,,,,,
1504282494.851014,0.559161,0.500281,-2.775314,-1.202110,0.155552,0.263213,0.465464,-0.479673,-0.743813,-0.314982,0.207547,-0.483696,9.328588,-12.570333,-47.525909,,,,,,,
1504282494.861023,0.556086,0.492077,-2.768170,-0.956892,-0.002883,0.045100,0.465237,-0.472457,-0.748558,-0.235638,0.250076,-0.280922,9.328588,-12.570333,-47.525909,,,,,,,
1504282494.871033,0.553925,0.485500,-2.765126,-0.599017,-0.081264,-0.170825,0.465243,-0.466650,-0.752188,-0.220003,0.197531,-0.093042,9.175497,-11.520407,-47.834198,,,,,,,
1504282494.881043,0.554721,0.482591,-2.767299,-0.001906,0.014192,-0.370630,0.466554,-0.464076,-0.752968,-0.232652,0.094859,0.065789,9.175497,-11.520407,-47.834198,,,,,,,
1504282494.891053,0.561003,0.483159,-2.775448,0.581498,0.358972,-0.664937,0.471135,-0.464579,-0.749799,-0.236699,0.020686,0.263654,9.551962,-11.969168,-47.604858,,,,,,,
1504282494.901063,0.574335,0.486089,-2.789470,1.002581,0.798034,-0.959584,0.480347,-0.467171,-0.742306,-0.254929,0.030251,0.279034,9.551962,-11.969168,-47.604858,,,,,,,
1504282494.911072,0.593547,0.489485,-2.807172,1.167699,1.177298,-1.156369,0.493629,-0.470171,-0.731621,-0.336188,0.053545,0.130044,10.453344,-12.564978,-47.673157,,,,,,,
1504282494.921082,0.615748,0.492315,-2.825763,1.153423,1.376711,-1.183430,0.508977,-0.472668,-0.719394,-0.403234,0.086117,-0.053571,10.453344,-12.564978,-47.673157,,,,,,,
1504282494.931061,0.637407,0.494528,-2.843030,1.029667,1.320061,-1.061861,0.523815,-0.474616,-0.707359,-0.447597,0.081642,-0.184044,11.730185,-12.935446,-47.067200,,,,,,,
1504282494.941071,0.655543,0.496186,-2.857105,0.824839,1.071085,-0.823746,0.536076,-0.476075,-0.697119,-0.458485,0.026551,-0.249872,11.730185,-12.935446,-47.067200,,,,,,,
1504282494.951081,0.668499,0.497381,-2.867240,0.575353,0.719094,-0.567381,0.544710,-0.477125,-0.689668,-0.473939,-0.051668,-0.253370,12.782141,-13.531332,-46.760071,,,,,,,
1504282494.961091,0.675563,0.497581,-2.873338,0.267995,0.303697,-0.361173,0.549508,-0.477302,-0.685729,-0.442284,-0.106546,-0.217668,12.782141,-13.531332,-46.760071,,,,,,,
1504282494.971100,0.676100,0.496173,-2.875857,-0.047151,-0.198937,-0.230609,0.550296,-0.476064,-0.685957,-0.366657,-0.158625,-0.206301,13.082327,-13.604986,-46.758789,,,,,,,
1504282494.981110,0.669747,0.493087,-2.875425,-0.332607,-0.751854,-0.143669,0.546836,-0.473348,-0.690588,-0.283042,-0.116923,-0.219141,13.082327,-13.604986,-46.758789,,,,,,,
1504282494.991120,0.657213,0.488415,-2.872879,-0.560854,-1.251912,-0.104757,0.539483,-0.469227,-0.699131,-0.231500,-0.010357,-0.243740,12.256277,-13.233541,-46.838623,,,,,,,
1504282495.001130,0.639970,0.482131,-2.869046,-0.741974,-1.624438,-0.111885,0.529099,-0.463668,-0.710680,-0.200760,0.095366,-0.264753,12.256277,-13.233541,-46.838623,,,,,,,
1504282495.011139,0.619939,0.474824,-2.864834,-0.827997,-1.856006,-0.135109,0.516713,-0.457182,-0.723873,-0.175847,0.208021,-0.258350,10.828756,-12.638601,-47.521637,,,,,,,
1504282495.021149,0.599138,0.466637,-2.861227,-0.858992,-1.925974,-0.236442,0.503639,-0.449885,-0.737530,-0.144554,0.277415,-0.211139,10.828756,-12.638601,-47.521637,,,,,,,
1504282495.031159,0.579179,0.457459,-2.859284,-0.869637,-1.901192,-0.415828,0.491058,-0.441669,-0.750859,-0.115814,0.271275,-0.219310,9.101065,-11.970007,-48.206024,,,,,,,
1504282495.041169,0.561299,0.446767,-2.858936,-0.932307,-1.711877,-0.596662,0.480042,-0.432052,-0.763473,-0.124237,0.282089,-0.267609,9.101065,-11.970007,-48.206024,,,,,,,
1504282495.051178,0.547461,0.434519,-2.860362,-0.977302,-1.330870,-0.805555,0.472150,-0.420974,-0.774503,-0.172010,0.286956,-0.273120,7.372763,-10.926855,-48.668121,,,,,,,
1504282495.061188,0.539061,0.421463,-2.864013,-0.922478,-0.864391,-0.996280,0.468410,-0.409096,-0.783092,-0.242153,0.219460,-0.214055,7.372763,-10.926855,-48.668121,,,,,,,
1504282495.071198,0.535592,0.408967,-2.869612,-0.766356,-0.480894,-1.093819,0.468263,-0.397661,-0.789047,-0.333543,0.137041,-0.142258,6.619864,-9.730368,-48.604004,,,,,,,
1504282495.081208,0.535271,0.398313,-2.876432,-0.536364,-0.259035,-1.072464,0.470144,-0.387864,-0.792796,-0.410986,0.072847,-0.111440,6.619864,-9.730368,-48.604004,,,,,,,
1504282495.091218,0.535211,0.389753,-2.883376,-0.382514,-0.293456,-0.955790,0.471772,-0.379960,-0.795652,-0.456574,0.026811,-0.133609,6.243399,-9.281607,-48.833313,,,,,,,
1504282495.101227,0.533367,0.382179,-2.889487,-0.363064,-0.457839,-0.840187,0.471754,-0.372944,-0.798975,-0.470198,-0.021847,-0.199117,6.243399,-9.281607,-48.833313,,,,,,,
1504282495.111237,0.529616,0.375303,-2.894012,-0.385134,-0.578244,-0.672431,0.470038,-0.366554,-0.802934,-0.503592,-0.078438,-0.222152,5.942160,-8.832800,-48.912415,,,,,,,
1504282495.121247,0.524726,0.369358,-2.897189,-0.357291,-0.601014,-0.515434,0.467190,-0.361016,-0.807094,-0.546978,-0.150184,-0.181843,5.942160,-8.832800,-48.912415,,,,,,,
1504282495.131257,0.519998,0.364865,-2.899322,-0.264651,-0.524155,-0.355299,0.464170,-0.356823,-0.810693,-0.553601,-0.176593,-0.134894,5.641256,-8.608694,-49.139862,,,,,,,
1504282495.141266,0.516120,0.362022,-2.900415,-0.175901,-0.396121,-0.188856,0.461521,-0.354166,-0.813366,-0.582569,-0.145514,-0.082096,5.641256,-8.608694,-49.139862,,,,,,,
1504282495.151246,0.513072,0.360185,-2.900663,-0.144560,-0.285658,-0.091863,0.459359,-0.352447,-0.815335,-0.568200,-0.047028,-0.078403,5.115393,-8.310904,-49.218414,,,,,,,
1504282495.161255,0.510727,0.358588,-2.900610,-0.140891,-0.216442,-0.074900,0.457720,-0.350952,-0.816900,-0.496554,0.048142,-0.080806,5.115393,-8.310904,-49.218414,,,,,,,
1504282495.171265,0.509001,0.356849,-2.900784,-0.144584,-0.165228,-0.108086,0.456606,-0.349324,-0.818220,-0.403780,0.060536,-0.060534,4.664801,-8.162634,-49.370636,,,,,,,
1504282495.181275,0.507883,0.354725,-2.901150,-0.181330,-0.110546,-0.140268,0.456050,-0.347333,-0.819377,-0.339641,0.039746,-0.037740,4.664801,-8.162634,-49.370636,,,,,,,
1504282495.191285,0.507349,0.352223,-2.901413,-0.212824,-0.046351,-0.140436,0.456034,-0.344985,-0.820377,-0.329752,0.021652,-0.016278,4.739340,-7.937444,-49.297119,,,,,,,
1504282495.201294,0.507515,0.349703,-2.901381,-0.220801,0.042129,-0.110719,0.456591,-0.342619,-0.821058,-0.343600,0.014296,0.008696,4.739340,-7.937444,-49.297119,,,,,,,
1504282495.211304,0.508829,0.347492,-2.900857,-0.216730,0.190148,-0.047996,0.458037,-0.340541,-0.821117,-0.363784,0.020213,0.032452,4.739462,-7.937597,-49.222137,,,,,,,
1504282495.221314,0.511695,0.345576,-2.899596,-0.227349,0.377702,0.028508,0.460708,-0.338739,-0.820368,-0.380370,0.025796,0.048335,4.739462,-7.937597,-49.222137,,,,,,,
1504282495.231324,0.516127,0.343907,-2.897722,-0.232676,0.546054,0.082639,0.464617,-0.337168,-0.818809,-0.380755,0.022974,0.048942,5.114035,-7.860616,-49.371765,,,,,,,
1504282495.241334,0.522009,0.342299,-2.895503,-0.247546,0.701731,0.104754,0.469695,-0.335654,-0.816531,-0.368361,0.032950,0.038562,5.114035,-7.860616,-49.371765,,,,,,,
1504282495.251343,0.528852,0.340724,-2.892974,-0.263200,0.772145,0.147299,0.475538,-0.334170,-0.813754,-0.367353,0.054796,0.017779,5.788656,-7.707571,-49.371246,,,,,,,
1504282495.261353,0.534817,0.338992,-2.889355,-0.351653,0.696077,0.218796,0.480678,-0.332537,-0.811399,-0.371379,0.103609,-0.038867,5.788656,-7.707571,-49.371246,,,,,,,
1504282495.271363,0.539659,0.336099,-2.884794,-0.506032,0.606767,0.224023,0.485093,-0.329806,-0.809884,-0.365540,0.134860,-0.092124,6.313650,-7.480962,-48.996643,,,,,,,
1504282495.281373,0.542631,0.332056,-2.879412,-0.645273,0.408642,0.228401,0.488182,-0.325988,-0.809574,-0.352516,0.041869,-0.085552,6.313650,-7.480962,-48.996643,,,,,,,
1504282495.291382,0.543006,0.327244,-2.872774,-0.766845,0.204955,0.318211,0.489291,-0.321435,-0.810724,-0.285144,-0.076423,-0.126852,6.911810,-6.877813,-49.224670,,,,,,,
1504282495.301392,0.540746,0.321538,-2.864641,-0.926682,0.002676,0.381267,0.488394,-0.316026,-0.813387,-0.322500,-0.258574,-0.186994,6.911810,-6.877813,-49.224670,,,,,,,
1504282495.311402,0.537628,0.314175,-2.855149,-1.157258,0.009867,0.416080,0.487034,-0.309032,-0.816883,-0.377369,-0.305928,-0.183712,6.684591,-6.128393,-49.455811,,,,,,,
1504282495.321412,0.534593,0.305494,-2.844708,-1.269261,-0.003036,0.390291,0.485901,-0.300764,-0.820635,-0.375534,-0.071077,-0.214720,6.684591,-6.128393,-49.455811,,,,,,,
1504282495.331421,0.531129,0.296178,-2.834500,-1.313234,-0.049531,0.361476,0.484454,-0.291867,-0.824693,-0.321551,0.058820,-0.242537,6.832098,-5.003164,-49.238922,,,,,,,
1504282495.341431,0.528872,0.286252,-2.823496,-1.412160,0.166460,0.433508,0.484029,-0.282359,-0.828245,-0.425374,0.052790,-0.191637,6.832098,-5.003164,-49.238922,,,,,,,
1504282495.351441,0.527305,0.277317,-2.812143,-1.268703,0.133245,0.496791,0.483980,-0.273776,-0.831150,-0.436388,0.030200,-0.081189,7.128820,-3.876211,-49.546661,,,,,,,
1504282495.361451,0.525336,0.270489,-2.803260,-0.923365,0.002674,0.357790,0.483269,-0.267202,-0.833699,-0.376183,0.088186,-0.144512,7.128820,-3.876211,-49.546661,,,,,,,
1504282495.371430,0.523108,0.266083,-2.797346,-0.599153,-0.078744,0.254958,0.481994,-0.262954,-0.835785,-0.385025,0.185119,-0.207718,6.976889,-2.977331,-49.328735,,,,,,,
1504282495.381440,0.521391,0.263322,-2.792838,-0.407754,-0.039806,0.233873,0.480918,-0.260290,-0.837238,-0.415839,0.167776,-0.244916,6.976889,-2.977331,-49.328735,,,,,,,
1504282495.391449,0.520848,0.262116,-2.789784,-0.200883,0.048053,0.183908,0.480619,-0.259125,-0.837771,-0.414045,0.121216,-0.261229,6.975653,-2.527181,-49.407135,,,,,,,
1504282495.401459,0.521335,0.262450,-2.788064,-0.002750,0.119984,0.148901,0.480984,-0.259447,-0.837461,-0.402386,0.099398,-0.283938,6.975653,-2.527181,-49.407135,,,,,,,
1504282495.411469,0.522696,0.264405,-2.787764,0.206826,0.154526,0.112911,0.481869,-0.261335,-0.836365,-0.400769,0.098432,-0.298782,7.276175,-2.601278,-49.180817,,,,,,,
1504282495.421479,0.524589,0.268004,-2.788640,0.404408,0.174219,0.104680,0.482978,-0.264807,-0.834632,-0.389289,0.087805,-0.273568,7.276175,-2.601278,-49.180817,,,,,,,
1504282495.431489,0.526863,0.273249,-2.790487,0.577163,0.168525,0.113528,0.484169,-0.269861,-0.832319,-0.383324,0.070673,-0.252382,7.127691,-3.201955,-49.176697,,,,,,,
1504282495.441498,0.528711,0.278993,-2.792689,0.598122,0.115082,0.104052,0.484916,-0.275388,-0.830071,-0.365028,0.068051,-0.220604,7.127691,-3.201955,-49.176697,,,,,,,
1504282495.451508,0.529765,0.284015,-2.794466,0.482263,0.038244,0.107189,0.485086,-0.280212,-0.828355,-0.353098,0.060287,-0.170424,7.354269,-3.875799,-49.246063,,,,,,,
1504282495.461518,0.530028,0.287407,-2.795340,0.284569,-0.008067,0.095187,0.484821,-0.283466,-0.827403,-0.370441,0.034839,-0.115315,7.354269,-3.875799,-49.246063,,,,,,,
1504282495.471528,0.529677,0.288647,-2.795273,0.038007,-0.046485,0.053199,0.484352,-0.284655,-0.827269,-0.391456,0.023699,-0.073945,7.504156,-3.874975,-49.320679,,,,,,,
1504282495.481537,0.528947,0.287032,-2.794178,-0.263544,-0.037541,-0.011384,0.483979,-0.283107,-0.828018,-0.407990,0.079936,-0.059341,7.504156,-3.874975,-49.320679,,,,,,,
1504282495.491547,0.527877,0.282370,-2.792109,-0.599565,-0.070935,-0.078086,0.483753,-0.278632,-0.829667,-0.422092,0.127570,-0.046432,7.578817,-3.649938,-49.172211,,,,,,,
1504282495.501557,0.525413,0.274062,-2.788269,-0.996997,-0.147564,-0.094651,0.482851,-0.270644,-0.832830,-0.439028,0.120437,-0.040018,7.578817,-3.649938,-49.172211,,,,,,,
1504282495.511567,0.522265,0.263236,-2.781472,-1.340071,-0.119333,0.068017,0.481661,-0.260207,-0.836836,-0.432848,0.077376,-0.035936,7.501333,-2.749959,-49.329132,,,,,,,
1504282495.521576,0.519084,0.251611,-2.772910,-1.424526,-0.087823,0.152140,0.480465,-0.248964,-0.840934,-0.411113,0.022371,-0.060998,7.501333,-2.749959,-49.329132,,,,,,,
1504282495.531586,0.514810,0.239683,-2.763932,-1.484614,-0.250387,0.173671,0.478294,-0.237395,-0.845505,-0.325172,-0.028749,-0.114898,7.048162,-1.402288,-49.190369,,,,,,,
1504282495.541596,0.509547,0.227253,-2.754724,-1.532086,-0.318191,0.170506,0.475240,-0.225302,-0.850521,-0.300619,-0.008112,-0.218830,7.048162,-1.402288,-49.190369,,,,,,,
1504282495.551606,0.504969,0.214822,-2.745826,-1.482174,-0.228003,0.148018,0.472661,-0.213174,-0.855072,-0.353779,0.027551,-0.224868,6.970114,-0.277318,-49.348999,,,,,,,
1504282495.561615,0.502510,0.204463,-2.738477,-1.151976,-0.047411,0.120519,0.471594,-0.203041,-0.858122,-0.395087,0.048714,-0.170534,6.970114,-0.277318,-49.348999,,,,,,,
1504282495.571625,0.502081,0.198039,-2.733734,-0.664274,0.077547,0.084852,0.471845,-0.196747,-0.859450,-0.405438,0.082382,-0.148332,7.117483,0.997614,-48.983215,,,,,,,
1504282495.581635,0.502563,0.195240,-2.731651,-0.238126,0.089029,0.015122,0.472522,-0.194002,-0.859701,-0.400287,0.181124,-0.177194,7.117483,0.997614,-48.983215,,,,,,,
1504282495.591614,0.503321,0.194701,-2.732404,0.046047,0.050598,-0.119878,0.473224,-0.193473,-0.859434,-0.382205,0.331077,-0.226884,7.116613,1.297770,-49.060455,,,,,,,
1504282495.601624,0.504016,0.194613,-2.734694,0.106022,0.006535,-0.236043,0.473829,-0.193386,-0.859120,-0.379759,0.336789,-0.228404,7.116613,1.297770,-49.060455,,,,,,,
1504282495.611634,0.504590,0.194967,-2.737990,0.223409,0.000256,-0.250772,0.474289,-0.193734,-0.858788,-0.372864,0.274514,-0.196998,7.117285,1.072611,-48.983765,,,,,,,
1504282495.621644,0.505453,0.197146,-2.740871,0.355105,0.019260,-0.099006,0.474824,-0.195871,-0.858007,-0.375062,0.155649,-0.134180,7.117285,1.072611,-48.983765,,,,,,,
1504282495.631653,0.505523,0.200471,-2.742943,0.391429,-0.048272,-0.002758,0.474567,-0.199131,-0.857399,-0.372806,0.062534,-0.089256,7.042028,0.997874,-49.283417,,,,,,,
1504282495.641663,0.505327,0.203153,-2.744554,0.268847,-0.039793,-0.012592,0.474138,-0.201759,-0.857022,-0.311556,0.083366,-0.076160,7.042028,0.997874,-49.283417,,,,,,,
1504282495.651673,0.505583,0.203515,-2.745011,-0.028219,0.030862,-0.021771,0.474322,-0.202113,-0.856836,-0.329745,0.052974,-0.027502,6.893301,0.621760,-49.055969,,,,,,,
1504282495.661683,0.505479,0.200964,-2.743647,-0.371013,0.004893,-0.002038,0.474481,-0.199614,-0.857334,-0.385340,0.019423,-0.071163,6.893301,0.621760,-49.055969,,,,,,,
1504282495.671692,0.504755,0.196275,-2.741010,-0.571813,-0.022224,-0.002338,0.474308,-0.195017,-0.858487,-0.393726,0.048807,-0.174884,7.117331,1.147318,-48.834351,,,,,,,
1504282495.681702,0.504193,0.190867,-2.738065,-0.616332,0.009054,-0.011010,0.474328,-0.189710,-0.859665,-0.386056,0.098035,-0.181321,7.117331,1.147318,-48.834351,,,,,,,
1504282495.691712,0.503852,0.186227,-2.735517,-0.475551,0.008949,-0.000092,0.474455,-0.185152,-0.860588,-0.392240,0.138262,-0.168602,7.116644,1.372462,-48.911041,,,,,,,
1504282495.701722,0.503541,0.184471,-2.734361,-0.104504,-0.011175,0.017665,0.474343,-0.183426,-0.861019,-0.365167,0.158570,-0.157261,7.116644,1.372462,-48.911041,,,,,,,
1504282495.711731,0.503733,0.186653,-2.735558,0.363021,0.000981,-0.003962,0.474314,-0.185571,-0.860575,-0.349070,0.176492,-0.121725,6.815969,1.596278,-48.988434,,,,,,,
1504282495.721741,0.504479,0.192201,-2.738764,0.712037,0.015159,-0.006584,0.474451,-0.191020,-0.859307,-0.367578,0.198680,-0.086067,6.815969,1.596278,-48.988434,,,,,,,
1504282495.731751,0.505358,0.199428,-2.742824,0.843093,-0.002977,0.000080,0.474525,-0.198109,-0.857659,-0.386833,0.181110,-0.094673,7.267172,1.073435,-49.058411,,,,,,,
1504282495.741761,0.506027,0.206101,-2.746740,0.720457,-0.007274,-0.019339,0.474448,-0.204645,-0.856166,-0.397116,0.206644,-0.136174,7.267172,1.073435,-49.058411,,,,,,,
1504282495.751730,0.506586,0.209765,-2.748544,0.280821,0.027180,0.047085,0.474560,-0.208230,-0.855239,-0.412563,0.203545,-0.140733,7.118979,0.397608,-48.978699,,,,,,,
1504282495.761739,0.506236,0.209185,-2.746985,-0.262927,-0.015298,0.114532,0.474319,-0.207662,-0.855511,-0.413619,0.058676,-0.126911,7.118979,0.397608,-48.978699,,,,,,,
1504282495.771749,0.505195,0.204249,-2.743166,-0.709853,-0.024364,0.075347,0.473918,-0.202832,-0.856890,-0.406916,0.021954,-0.173978,7.118643,0.398066,-49.203705,,,,,,,
1504282495.781759,0.504294,0.196846,-2.738137,-0.921812,0.022135,0.077032,0.473858,-0.195578,-0.858608,-0.383419,0.049688,-0.168278,7.118643,0.398066,-49.203705,,,,,,,
1504282495.791769,0.503456,0.189429,-2.732879,-0.871883,0.008913,0.099557,0.473826,-0.188298,-0.860252,-0.395899,0.021337,-0.136101,6.741583,1.445628,-48.837524,,,,,,,
1504282495.801778,0.502673,0.183601,-2.728473,-0.659563,0.005040,0.093528,0.473673,-0.182571,-0.861570,-0.391672,0.061263,-0.141726,6.741583,1.445628,-48.837524,,,,,,,
1504282495.811758,0.502340,0.179902,-2.725522,-0.399009,0.018901,0.071539,0.473707,-0.178933,-0.862313,-0.368025,0.125161,-0.127005,7.264990,1.898600,-49.139587,,,,,,,
1504282495.821767,0.501903,0.178222,-2.723825,-0.176343,-0.025551,0.065599,0.473475,-0.177280,-0.862782,-0.325495,0.143696,-0.103572,7.264990,1.898600,-49.139587,,,,,,,
1504282495.831777,0.501207,0.177725,-2.722760,-0.080567,-0.055113,0.067952,0.472916,-0.176791,-0.863189,-0.333374,0.133242,-0.091874,7.264608,2.272852,-48.767395,,,,,,,
1504282495.841787,0.500523,0.177046,-2.721694,-0.129505,-0.046171,0.053975,0.472383,-0.176123,-0.863617,-0.343279,0.123327,-0.090362,7.264608,2.272852,-48.767395,,,,,,,
1504282495.851797,0.499810,0.175520,-2.720260,-0.224448,-0.046451,0.050609,0.471896,-0.174620,-0.864189,-0.356524,0.119643,-0.116616,6.889914,2.196009,-48.692780,,,,,,,
1504282495.861806,0.498877,0.173334,-2.718489,-0.285401,-0.068319,0.043070,0.471270,-0.172467,-0.864962,-0.372287,0.113232,-0.149168,6.889914,2.196009,-48.692780,,,,,,,
1504282495.871816,0.497943,0.171081,-2.716876,-0.265005,-0.062077,0.028151,0.470646,-0.170248,-0.865741,-0.411259,0.096105,-0.168179,6.663717,2.495600,-48.995575,,,,,,,
1504282495.881826,0.497249,0.168675,-2.715466,-0.289232,-0.041600,-0.001814,0.470240,-0.167876,-0.866425,-0.443247,0.120925,-0.172668,6.663717,2.495600,-48.995575,,,,,,,
1504282495.891836,0.496267,0.165283,-2.713624,-0.426274,-0.080093,0.005404,0.469657,-0.164531,-0.867382,-0.428077,0.086544,-0.137074,6.737539,3.095484,-48.774872,,,,,,,
1504282495.901845,0.494613,0.159920,-2.709829,-0.742836,-0.112752,0.103114,0.468634,-0.159240,-0.868922,-0.416983,0.015502,-0.115240,6.737539,3.095484,-48.774872,,,,,,,
1504282495.911855,0.492996,0.151572,-2.703543,-1.103029,-0.030977,0.147177,0.467842,-0.150992,-0.870819,-0.394554,0.013846,-0.122193,6.810919,3.695979,-48.854218,,,,,,,
1504282495.921865,0.492875,0.141130,-2.697016,-1.251811,0.114208,0.047394,0.468456,-0.140662,-0.872217,-0.339489,0.075507,-0.129263,6.810919,3.695979,-48.854218,,,,,,,
1504282495.931875,0.492951,0.130116,-2.690691,-1.263848,0.070627,0.037844,0.469227,-0.129749,-0.873493,-0.304921,0.155262,-0.140880,6.959829,4.445612,-48.334473,,,,,,,
1504282495.941885,0.491555,0.119339,-2.683947,-1.272877,-0.091325,0.091484,0.468640,-0.119056,-0.875330,-0.370130,0.109794,-0.178686,6.959829,4.445612,-48.334473,,,,,,,
1504282495.951894,0.489511,0.108219,-2.677077,-1.300805,-0.129432,0.068020,0.467444,-0.108008,-0.877400,-0.392844,0.109885,-0.179164,7.032156,5.645503,-48.118286,,,,,,,
1504282495.961904,0.487470,0.097949,-2.671109,-1.129143,-0.164910,0.034223,0.466147,-0.097793,-0.879286,-0.356863,0.124145,-0.116091,7.032156,5.645503,-48.118286,,,,,,,
1504282495.971914,0.484847,0.089708,-2.666177,-0.874554,-0.208578,0.046483,0.464199,-0.089588,-0.881189,-0.349148,0.177921,-0.022528,7.029287,6.920054,-47.902832,,,,,,,
1504282495.981924,0.483288,0.084953,-2.663625,-0.425296,-0.097140,-0.004171,0.463017,-0.084851,-0.882278,-0.326619,0.268307,0.097885,7.029287,6.920054,-47.902832,,,,,,,
1504282495.991933,0.482916,0.083331,-2.662688,-0.131369,-0.022854,0.011151,0.462752,-0.083234,-0.882571,-0.360595,0.218351,0.085330,7.029287,6.920054,-47.902832,,,,,,,
1504282496.001943,0.482389,0.082290,-2.661996,-0.143347,-0.053656,0.010117,0.462327,-0.082197,-0.882891,-0.378709,0.210096,-0.083692,6.878546,7.219386,-47.905457,,,,,,,
1504282496.011953,0.481410,0.079960,-2.660685,-0.303679,-0.092824,0.005639,0.461550,-0.079875,-0.883511,-0.373690,0.186625,-0.226291,6.878546,7.219386,-47.905457,,,,,,,
1504282496.021963,0.480112,0.077016,-2.659008,-0.340184,-0.114912,0.016289,0.460509,-0.076940,-0.884314,-0.368377,0.150167,-0.232172,6.579077,7.142588,-47.680634,,,,,,,
1504282496.031942,0.478950,0.074244,-2.657245,-0.331543,-0.093684,0.029075,0.459578,-0.074175,-0.885034,-0.362075,0.177706,-0.152991,6.579077,7.142588,-47.680634,,,,,,,
1504282496.041952,0.478099,0.071297,-2.655253,-0.355858,-0.058331,0.040712,0.458923,-0.071237,-0.885616,-0.369812,0.182504,-0.090535,6.728308,7.443263,-47.682495,,,,,,,
1504282496.051961,0.477800,0.067742,-2.653148,-0.440600,0.001004,0.012708,0.458772,-0.067690,-0.885972,-0.409730,0.200274,-0.102264,6.728308,7.443263,-47.682495,,,,,,,
1504282496.061971,0.477528,0.063045,-2.650942,-0.531260,-0.025904,-0.036502,0.458672,-0.063003,-0.886369,-0.406960,0.203689,-0.127059,6.352072,7.891734,-47.761810,,,,,,,
1504282496.071981,0.477569,0.057402,-2.649009,-0.588110,0.031105,-0.098610,0.458864,-0.057370,-0.886652,-0.413210,0.174924,-0.142416,6.352072,7.891734,-47.761810,,,,,,,
1504282496.081991,0.478044,0.052018,-2.647481,-0.537645,0.063735,-0.110322,0.459421,-0.051995,-0.886696,-0.445551,0.165459,-0.110756,6.650640,8.642481,-47.466736,,,,,,,
1504282496.092001,0.479049,0.046883,-2.646096,-0.496563,0.128403,-0.114634,0.460429,-0.046866,-0.886459,-0.444743,0.204199,-0.076585,6.650640,8.642481,-47.466736,,,,,,,
1504282496.102010,0.480892,0.042624,-2.645388,-0.375206,0.206294,-0.148718,0.462150,-0.042611,-0.885777,-0.377495,0.175423,-0.057201,6.425192,8.866327,-47.393951,,,,,,,
1504282496.112020,0.482819,0.039490,-2.645348,-0.272026,0.190486,-0.111152,0.463916,-0.039480,-0.884999,-0.301029,0.230367,-0.089916,6.425192,8.866327,-47.393951,,,,,,,
1504282496.122030,0.484402,0.035876,-2.644483,-0.398424,0.139294,-0.093135,0.465379,-0.035868,-0.884384,-0.371660,0.140833,-0.124802,6.424246,9.241327,-47.396759,,,,,,,
1504282496.132040,0.485468,0.031516,-2.643548,-0.423031,0.107568,-0.130481,0.466391,-0.031511,-0.884017,-0.394583,0.097505,-0.123261,6.424246,9.241327,-47.396759,,,,,,,
1504282496.142049,0.486556,0.028296,-2.643369,-0.233271,0.104911,-0.103463,0.467397,-0.028292,-0.883595,-0.359548,0.153415,-0.021236,6.573751,9.616404,-47.099243,,,,,,,
1504282496.152059,0.487849,0.026565,-2.643375,-0.131774,0.134957,-0.083059,0.468562,-0.026562,-0.883031,-0.391474,0.108928,0.042837,6.573751,9.616404,-47.099243,,,,,,,
1504282496.162069,0.488901,0.025087,-2.643615,-0.119213,0.093314,-0.101110,0.469508,-0.025084,-0.882572,-0.361186,0.094008,-0.066189,6.647970,9.842035,-47.250732,,,,,,,
1504282496.172079,0.489945,0.023518,-2.643932,-0.127636,0.109364,-0.097950,0.470447,-0.023516,-0.882115,-0.351321,0.092272,-0.199932,6.647970,9.842035,-47.250732,,,,,,,
1504282496.182088,0.490608,0.022284,-2.643826,-0.111406,0.049481,-0.025233,0.471046,-0.022282,-0.881827,-0.371619,0.042500,-0.194390,6.797857,10.067118,-46.952026,,,,,,,
1504282496.192098,0.490755,0.021650,-2.643693,-0.033866,0.011537,-0.016493,0.471182,-0.021648,-0.881770,-0.376928,0.041988,-0.182759,6.797857,10.067118,-46.952026,,,,,,,
1504282496.202108,0.491024,0.022140,-2.643984,0.079299,0.032962,0.003946,0.471414,-0.022138,-0.881634,-0.364724,0.132948,-0.140094,6.872396,10.292307,-46.878540,,,,,,,
1504282496.212118,0.491311,0.023398,-2.644387,0.147391,0.024915,0.029696,0.471653,-0.023396,-0.881474,-0.376652,0.189625,-0.136699,6.872396,10.292307,-46.878540,,,,,,,
1504282496.222127,0.491483,0.025301,-2.645134,0.220966,0.011535,0.017038,0.471783,-0.025298,-0.881352,-0.371334,0.180953,-0.190410,6.797064,10.292414,-47.103729,,,,,,,
1504282496.232137,0.491168,0.026711,-2.646016,0.124581,-0.056896,-0.020367,0.471488,-0.026708,-0.881468,-0.416663,0.045186,-0.198152,6.797064,10.292414,-47.103729,,,,,,,
1504282496.242116,0.490021,0.026441,-2.646087,-0.048845,-0.125804,-0.014142,0.470479,-0.026438,-0.882015,-0.437917,-0.084631,-0.157765,6.871756,10.367899,-47.179108,,,,,,,
1504282496.252126,0.489335,0.026595,-2.646232,0.064910,-0.037240,-0.004494,0.469873,-0.026591,-0.882333,-0.392145,-0.044331,-0.014975,6.871756,10.367899,-47.179108,,,,,,,
1504282496.262136,0.489804,0.028524,-2.647219,0.269404,0.060162,0.009565,0.470261,-0.028520,-0.882066,-0.352708,0.086610,0.121416,6.647482,10.216440,-46.953522,,,,,,,
1504282496.272146,0.490559,0.032046,-2.648898,0.416626,0.064267,0.019419,0.470877,-0.032041,-0.881617,-0.347952,0.138501,0.046534,6.647482,10.216440,-46.953522,,,,,,,
1504282496.282156,0.490974,0.036509,-2.651159,0.529473,0.026054,0.007941,0.471171,-0.036501,-0.881286,-0.357996,0.160921,-0.122605,6.647772,9.917032,-47.251282,,,,,,,
1504282496.292165,0.491416,0.042220,-2.654257,0.693918,0.033240,-0.007798,0.471455,-0.042207,-0.880880,-0.373234,0.204973,-0.193507,6.647772,9.917032,-47.251282,,,,,,,
1504282496.302175,0.491972,0.049231,-2.658278,0.841303,0.038442,-0.028900,0.471792,-0.049212,-0.880335,-0.385962,0.192995,-0.173116,6.573645,9.616556,-47.174225,,,,,,,
1504282496.312185,0.492536,0.056964,-2.662947,0.914915,0.025070,-0.049029,0.472095,-0.056933,-0.879707,-0.384631,0.178363,-0.151253,6.573645,9.616556,-47.174225,,,,,,,
1504282496.322195,0.493139,0.064805,-2.667869,0.926875,0.040975,-0.068250,0.472400,-0.064760,-0.879002,-0.402255,0.161058,-0.122234,6.649282,9.092783,-47.620087,,,,,,,
1504282496.332204,0.494152,0.072458,-2.672902,0.912309,0.079470,-0.081152,0.473040,-0.072395,-0.878061,-0.418658,0.147315,-0.077124,6.649282,9.092783,-47.620087,,,,,,,
1504282496.342214,0.495419,0.080398,-2.678209,0.959313,0.080160,-0.091746,0.473864,-0.080311,-0.876928,-0.413028,0.136845,-0.047526,6.651251,8.267923,-47.688873,,,,,,,
1504282496.352224,0.496698,0.088432,-2.683621,0.960362,0.081211,-0.086409,0.474663,-0.088317,-0.875725,-0.380639,0.110626,-0.036582,6.651251,8.267923,-47.688873,,,,,,,
1504282496.362234,0.497253,0.096437,-2.688670,0.932705,-0.019830,-0.051054,0.474796,-0.096288,-0.874813,-0.355640,0.096181,-0.049046,6.728247,7.293864,-47.981445,,,,,,,
1504282496.372243,0.496755,0.104166,-2.692996,0.861395,-0.098152,0.002330,0.473992,-0.103977,-0.874368,-0.338723,0.107426,-0.086493,6.728247,7.293864,-47.981445,,,,,,,
1504282496.382253,0.496268,0.110914,-2.696393,0.711036,-0.070303,0.030841,0.473222,-0.110687,-0.873962,-0.352692,0.134506,-0.100052,6.655386,6.393672,-48.049835,,,,,,,
1504282496.392263,0.496515,0.116186,-2.698893,0.549398,-0.003969,0.029376,0.473152,-0.115925,-0.873320,-0.388100,0.177708,-0.115007,6.655386,6.393672,-48.049835,,,,,,,
1504282496.402273,0.496978,0.120070,-2.701468,0.431684,0.026935,-0.064814,0.473339,-0.119782,-0.872698,-0.410320,0.237320,-0.172712,6.656179,5.944117,-48.271484,,,,,,,
1504282496.412282,0.497752,0.122702,-2.703806,0.316704,0.051337,-0.075730,0.473862,-0.122395,-0.872052,-0.398331,0.260380,-0.222186,6.656179,5.944117,-48.271484,,,,,,,
1504282496.422292,0.498258,0.124485,-2.705506,0.211826,0.020218,-0.061981,0.474198,-0.124163,-0.871619,-0.417405,0.184420,-0.241983,6.882376,5.420283,-48.341980,,,,,,,
1504282496.432302,0.498546,0.125529,-2.706926,0.145681,0.010125,-0.079156,0.474387,-0.125200,-0.871368,-0.416251,0.137468,-0.211335,6.882376,5.420283,-48.341980,,,,,,,
1504282496.442312,0.498888,0.126142,-2.708271,0.107378,0.016845,-0.089908,0.474648,-0.125808,-0.871138,-0.418114,0.118270,-0.139741,6.807577,5.344935,-48.341614,,,,,,,
1504282496.452322,0.499207,0.126397,-2.709579,0.075440,0.014995,-0.107039,0.474910,-0.126061,-0.870958,-0.426983,0.103310,-0.087278,6.807577,5.344935,-48.341614,,,,,,,
1504282496.462301,0.499479,0.126294,-2.710955,0.054166,0.007736,-0.131613,0.475154,-0.125959,-0.870841,-0.425059,0.091184,-0.074075,6.432913,5.118556,-48.490845,,,,,,,
1504282496.472311,0.499732,0.125977,-2.712515,0.036171,0.008978,-0.158331,0.475393,-0.125644,-0.870755,-0.434744,0.084308,-0.088733,6.432913,5.118556,-48.490845,,,,,,,
1504282496.482320,0.500173,0.125399,-2.714201,0.031079,0.026092,-0.179718,0.475811,-0.125071,-0.870609,-0.439846,0.083079,-0.110134,6.657797,5.119715,-48.565308,,,,,,,
1504282496.492330,0.500620,0.124943,-2.716223,0.069549,0.018341,-0.204188,0.476228,-0.124618,-0.870446,-0.425493,0.084167,-0.135505,6.657797,5.119715,-48.565308,,,,,,,
1504282496.502340,0.501202,0.124947,-2.718812,0.142308,0.026297,-0.232896,0.476735,-0.124622,-0.870169,-0.423756,0.094577,-0.158289,6.433584,4.893397,-48.414124,,,,,,,
1504282496.512350,0.501821,0.125342,-2.722070,0.201153,0.019464,-0.276546,0.477249,-0.125014,-0.869831,-0.437103,0.086149,-0.164258,6.433584,4.893397,-48.414124,,,,,,,
1504282496.522359,0.502706,0.126006,-2.726124,0.271018,0.046656,-0.336247,0.477979,-0.125673,-0.869334,-0.449216,0.095140,-0.173512,6.282873,5.267436,-48.267334,,,,,,,
1504282496.532369,0.503781,0.127146,-2.731150,0.370504,0.042701,-0.394775,0.478844,-0.126804,-0.868694,-0.476112,0.099506,-0.181980,6.282873,5.267436,-48.267334,,,,,,,
1504282496.542379,0.505258,0.128600,-2.736805,0.389249,0.097992,-0.427929,0.480037,-0.128246,-0.867824,-0.535807,0.131496,-0.224919,6.509832,4.443583,-48.335602,,,,,,,
1504282496.552389,0.507692,0.129528,-2.742265,0.332379,0.194359,-0.422861,0.482089,-0.129166,-0.866548,-0.506000,0.184891,-0.245360,6.509832,4.443583,-48.335602,,,,,,,
1504282496.562398,0.510530,0.130983,-2.747614,0.412404,0.220298,-0.382206,0.484454,-0.130608,-0.865012,-0.413928,0.180596,-0.244744,6.584158,4.669077,-48.412079,,,,,,,
1504282496.572408,0.513711,0.134262,-2.753656,0.648250,0.244965,-0.353021,0.486990,-0.133859,-0.863089,-0.382940,0.218102,-0.272043,6.584158,4.669077,-48.412079,,,,,,,
1504282496.582418,0.517116,0.140325,-2.760847,0.955257,0.239193,-0.307648,0.489515,-0.139865,-0.860705,-0.331755,0.265720,-0.288481,6.434835,4.443247,-48.335785,,,,,,,
1504282496.592428,0.520461,0.149141,-2.769239,1.241837,0.202705,-0.280402,0.491760,-0.148588,-0.857959,-0.310180,0.270140,-0.288342,6.434835,4.443247,-48.335785,,,,,,,
1504282496.602438,0.523472,0.159427,-2.778712,1.389780,0.139711,-0.308855,0.493551,-0.158753,-0.855105,-0.333288,0.270401,-0.287503,6.435995,3.843699,-48.556274,,,,,,,
1504282496.612447,0.526032,0.170026,-2.789189,1.433351,0.070168,-0.385510,0.494865,-0.169208,-0.852336,-0.388695,0.216571,-0.297475,6.435995,3.843699,-48.556274,,,,,,,
1504282496.622457,0.528246,0.179639,-2.799864,1.319023,0.022138,-0.429386,0.495909,-0.178674,-0.849794,-0.451033,0.100549,-0.307265,6.588568,2.644969,-48.846893,,,,,,,
1504282496.632467,0.529537,0.187264,-2.809468,1.062177,-0.076976,-0.431792,0.496303,-0.186171,-0.847953,-0.474849,-0.010362,-0.326043,6.588568,2.644969,-48.846893,,,,,,,
1504282496.642477,0.529684,0.192804,-2.818062,0.869510,-0.167010,-0.452247,0.495898,-0.191612,-0.846977,-0.422336,-0.032570,-0.316369,6.666311,1.595149,-48.763824,,,,,,,
1504282496.652486,0.529610,0.197949,-2.826478,0.873787,-0.163851,-0.449043,0.495331,-0.196659,-0.846152,-0.363587,0.018635,-0.235285,6.666311,1.595149,-48.763824,,,,,,,
1504282496.662496,0.530014,0.204149,-2.835181,0.997731,-0.120152,-0.414749,0.495047,-0.202733,-0.844883,-0.339652,0.083654,-0.120907,6.068197,0.618189,-49.132965,,,,,,,
1504282496.672506,0.531120,0.211697,-2.844370,1.138853,-0.066998,-0.386845,0.495192,-0.210119,-0.842991,-0.306441,0.141501,-0.043361,6.068197,0.618189,-49.132965,,,,,,,
1504282496.682485,0.532606,0.220161,-2.853839,1.207086,-0.057995,-0.362193,0.495524,-0.218387,-0.840692,-0.290964,0.176837,-0.029349,5.770575,-0.283315,-49.051971,,,,,,,
1504282496.692495,0.533956,0.228518,-2.862956,1.151370,-0.068224,-0.331317,0.495711,-0.226535,-0.838422,-0.299972,0.163409,-0.055071,5.770575,-0.283315,-49.051971,,,,,,,
1504282496.702505,0.534919,0.236443,-2.870819,1.037495,-0.102557,-0.230050,0.495588,-0.234246,-0.836374,-0.303145,0.122948,-0.077185,5.921484,-0.732336,-49.198212,,,,,,,
1504282496.712514,0.535548,0.243219,-2.877523,0.885909,-0.098135,-0.206838,0.495293,-0.240828,-0.834678,-0.304757,0.100813,-0.102914,5.921484,-0.732336,-49.198212,,,,,,,
1504282496.722524,0.536060,0.249519,-2.883722,0.832502,-0.097709,-0.194122,0.494935,-0.246938,-0.833103,-0.309388,0.156026,-0.116253,5.775244,-2.233022,-49.187317,,,,,,,
1504282496.732534,0.536538,0.255502,-2.889518,0.802377,-0.112407,-0.167464,0.494569,-0.252731,-0.831582,-0.352220,0.189849,-0.096351,5.775244,-2.233022,-49.187317,,,,,,,
1504282496.742544,0.536493,0.261520,-2.895056,0.782759,-0.152757,-0.149281,0.493746,-0.258549,-0.830281,-0.375140,0.181583,-0.079142,5.552389,-3.133886,-49.256134,,,,,,,
1504282496.752535,0.536396,0.267545,-2.900492,0.788049,-0.151746,-0.138599,0.492860,-0.264365,-0.828975,-0.381776,0.186530,-0.086689,5.552389,-3.133886,-49.256134,,,,,,,
1504282496.762545,0.536539,0.273829,-2.905812,0.808480,-0.117838,-0.116208,0.492119,-0.270420,-0.827461,-0.394814,0.191745,-0.106148,5.628195,-3.583105,-49.477570,,,,,,,
1504282496.772555,0.536677,0.280175,-2.911118,0.798771,-0.130546,-0.115135,0.491347,-0.276524,-0.825901,-0.389998,0.177098,-0.157314,5.628195,-3.583105,-49.477570,,,,,,,
1504282496.782565,0.536592,0.285592,-2.915884,0.650376,-0.143174,-0.117505,0.490504,-0.281725,-0.824644,-0.400797,0.153689,-0.236315,5.630301,-4.333395,-49.321930,,,,,,,
1504282496.792575,0.536384,0.288431,-2.919310,0.324334,-0.104232,-0.143756,0.489921,-0.284449,-0.824055,-0.415687,0.165659,-0.303753,5.630301,-4.333395,-49.321930,,,,,,,
1504282496.802584,0.536328,0.288225,-2.921000,-0.014409,-0.038567,-0.147661,0.489905,-0.284251,-0.824133,-0.383734,0.127161,-0.239909,5.256094,-4.784643,-49.544525,,,,,,,
1504282496.812594,0.535891,0.285997,-2.921376,-0.220558,-0.066707,-0.146901,0.489867,-0.282114,-0.824889,-0.403136,-0.010428,-0.187410,5.256094,-4.784643,-49.544525,,,,,,,
1504282496.822604,0.533799,0.282288,-2.920821,-0.385086,-0.228387,-0.147969,0.488669,-0.278554,-0.826807,-0.447928,-0.074031,-0.204107,4.956701,-4.936285,-49.394104,,,,,,,
1504282496.832614,0.531244,0.277394,-2.919959,-0.477785,-0.236110,-0.185475,0.487240,-0.273850,-0.829218,-0.441647,-0.104873,-0.198370,4.956701,-4.936285,-49.394104,,,,,,,
1504282496.842623,0.528894,0.272207,-2.919037,-0.496768,-0.205057,-0.180225,0.486000,-0.268858,-0.831577,-0.427269,-0.083941,-0.162152,4.880682,-4.711019,-49.695984,,,,,,,
1504282496.852633,0.526689,0.267280,-2.918114,-0.458335,-0.191538,-0.163104,0.484826,-0.264109,-0.833781,-0.400780,-0.048605,-0.126104,4.880682,-4.711019,-49.695984,,,,,,,
1504282496.862643,0.525374,0.263040,-2.917417,-0.368003,-0.097452,-0.154574,0.484286,-0.260017,-0.835379,-0.377962,-0.024987,-0.072580,4.728842,-3.886999,-49.552582,,,,,,,
1504282496.872653,0.524610,0.260453,-2.917688,-0.145931,-0.077971,-0.153156,0.483983,-0.257519,-0.836328,-0.388142,0.013332,0.002191,4.728842,-3.886999,-49.552582,,,,,,,
1504282496.882662,0.524579,0.260318,-2.919761,0.156355,-0.056981,-0.187894,0.483974,-0.257388,-0.836373,-0.401317,0.036670,0.016839,4.277563,-3.513570,-49.781494,,,,,,,
1504282496.892672,0.525074,0.261378,-2.922702,0.238770,-0.013054,-0.191099,0.484251,-0.258412,-0.835897,-0.411253,0.048848,-0.046030,4.277563,-3.513570,-49.781494,,,,,,,
1504282496.902651,0.525770,0.262076,-2.925386,0.165251,0.001401,-0.188049,0.484742,-0.259087,-0.835404,-0.448670,0.027382,-0.135604,4.578161,-3.438268,-49.256287,,,,,,,
1504282496.912661,0.526458,0.261767,-2.927423,0.039545,0.028007,-0.184045,0.485357,-0.258788,-0.835139,-0.463781,-0.041505,-0.202779,4.578161,-3.438268,-49.256287,,,,,,,
1504282496.922671,0.527159,0.260199,-2.928854,-0.098967,0.037696,-0.206717,0.486145,-0.257273,-0.835149,-0.467698,-0.122625,-0.187846,4.127829,-3.439840,-49.482391,,,,,,,
1504282496.932681,0.528501,0.257963,-2.930240,-0.123794,0.117850,-0.234654,0.487555,-0.255112,-0.834990,-0.477622,-0.173202,-0.132036,4.127829,-3.439840,-49.482391,,,,,,,
1504282496.942691,0.530679,0.255789,-2.931994,-0.096326,0.198640,-0.264636,0.489652,-0.253009,-0.834402,-0.477720,-0.148618,-0.071634,4.503042,-3.438451,-49.331451,,,,,,,
1504282496.952700,0.533852,0.253352,-2.933875,-0.128534,0.293766,-0.286208,0.492610,-0.250650,-0.833373,-0.471842,-0.100516,-0.062165,4.503042,-3.438451,-49.331451,,,,,,,
1504282496.962710,0.538079,0.250483,-2.935757,-0.157474,0.400581,-0.302457,0.496494,-0.247872,-0.831897,-0.508976,-0.071784,-0.111996,4.426840,-3.138189,-49.633942,,,,,,,
1504282496.972720,0.543115,0.247509,-2.937495,-0.172897,0.478488,-0.294082,0.501056,-0.244990,-0.830014,-0.540225,-0.046011,-0.167270,4.426840,-3.138189,-49.633942,,,,,,,
1504282496.982730,0.548554,0.244213,-2.938661,-0.239902,0.526956,-0.259059,0.505981,-0.241793,-0.827961,-0.542145,-0.022947,-0.217037,5.026007,-2.760641,-49.560272,,,,,,,
1504282496.992739,0.554570,0.240726,-2.939304,-0.274646,0.604998,-0.227235,0.511394,-0.238408,-0.825613,-0.548412,-0.007274,-0.253458,5.026007,-2.760641,-49.560272,,,,,,,
1504282497.002749,0.561416,0.237315,-2.939491,-0.278298,0.707283,-0.186861,0.517464,-0.235093,-0.822777,-0.549126,0.001313,-0.249840,5.401648,-2.834554,-49.258759,,,,,,,
1504282497.012759,0.569165,0.234514,-2.939501,-0.213838,0.794080,-0.136734,0.524177,-0.232371,-0.819294,-0.532951,0.012049,-0.234677,5.401648,-2.834554,-49.258759,,,,,,,
1504282497.022769,0.577560,0.232444,-2.939494,-0.166589,0.853328,-0.102600,0.531298,-0.230357,-0.815266,-0.531787,-0.008474,-0.258160,5.926229,-2.532644,-49.034729,,,,,,,
1504282497.032778,0.586391,0.230878,-2.939285,-0.135488,0.899914,-0.059932,0.538676,-0.228832,-0.810842,-0.535182,-0.043903,-0.299235,5.926229,-2.532644,-49.034729,,,,,,,
1504282497.042788,0.595443,0.229853,-2.938984,-0.087540,0.916528,-0.020384,0.546125,-0.227835,-0.806126,-0.531659,-0.046640,-0.312709,6.824484,-1.928289,-49.186981,,,,,,,
1504282497.052798,0.604434,0.229184,-2.938110,-0.112440,0.916658,0.052156,0.553436,-0.227183,-0.801309,-0.525833,-0.048818,-0.325186,6.824484,-1.928289,-49.186981,,,,,,,
1504282497.062808,0.613238,0.228754,-2.936527,-0.125528,0.920961,0.116170,0.560526,-0.226764,-0.796485,-0.520838,-0.040707,-0.348809,7.874823,-1.924016,-48.959412,,,,,,,
1504282497.072817,0.622178,0.228616,-2.934243,-0.143820,0.950867,0.195073,0.567642,-0.226630,-0.791468,-0.517822,-0.027109,-0.341009,7.874823,-1.924016,-48.959412,,,,,,,
1504282497.082827,0.631174,0.228974,-2.931344,-0.132268,0.973074,0.267637,0.574692,-0.226978,-0.786263,-0.539581,-0.036312,-0.311942,8.399206,-1.547109,-48.735901,,,,,,,
1504282497.092837,0.640751,0.229956,-2.928017,-0.099947,1.054788,0.335863,0.582062,-0.227935,-0.780545,-0.537903,-0.033677,-0.289020,8.399206,-1.547109,-48.735901,,,,,,,
1504282497.102847,0.651140,0.231935,-2.924511,-0.023877,1.140399,0.409494,0.589865,-0.229861,-0.774095,-0.536200,-0.016630,-0.250624,9.524725,-1.617498,-48.507599,,,,,,,
1504282497.112857,0.662243,0.235163,-2.920912,0.061525,1.203536,0.501328,0.597963,-0.233002,-0.766910,-0.529390,0.008194,-0.237317,9.524725,-1.617498,-48.507599,,,,,,,
1504282497.122836,0.673667,0.239552,-2.916955,0.119009,1.247717,0.598483,0.606042,-0.237268,-0.759222,-0.525704,0.042749,-0.266474,10.499838,-1.389013,-48.056885,,,,,,,
1504282497.132846,0.685343,0.245189,-2.912618,0.193390,1.276829,0.706368,0.614008,-0.242740,-0.751047,-0.513636,0.100452,-0.284094,10.499838,-1.389013,-48.056885,,,,,,,
1504282497.142855,0.696938,0.251898,-2.907819,0.222698,1.271151,0.811034,0.621616,-0.249243,-0.742611,-0.530307,0.095388,-0.271457,11.926062,-1.832769,-47.974976,,,,,,,
1504282497.152865,0.708340,0.259434,-2.902395,0.243613,1.279401,0.909257,0.628802,-0.256534,-0.734028,-0.522952,0.062763,-0.288890,12.976812,-1.903783,-47.596771,,,,,,,
1504282497.162875,0.719242,0.267475,-2.896173,0.203355,1.240208,1.003188,0.635388,-0.264297,-0.725554,-0.494260,0.063507,-0.277193,12.976812,-1.903783,-47.596771,,,,,,,
1504282497.172885,0.729763,0.276066,-2.889347,0.207199,1.233705,1.077924,0.641449,-0.272572,-0.717111,-0.486801,0.026387,-0.257621,12.976812,-1.903783,-47.596771,,,,,,,
1504282497.182894,0.739779,0.284994,-2.881945,0.171340,1.192376,1.141979,0.646932,-0.281152,-0.708824,-0.476309,0.009958,-0.228737,13.953726,-2.350454,-47.066010,,,,,,,
1504282497.192904,0.748522,0.293694,-2.873418,0.051761,1.087801,1.204933,0.651416,-0.289490,-0.701322,-0.463046,-0.013122,-0.254366,13.953726,-2.350454,-47.066010,,,,,,,
1504282497.202914,0.755727,0.301682,-2.863365,-0.116789,0.992162,1.260314,0.654845,-0.297127,-0.694905,-0.464095,-0.045341,-0.305614,15.229773,-2.495626,-46.611755,,,,,,,
1504282497.212924,0.761895,0.308900,-2.852247,-0.228151,0.944058,1.263409,0.657621,-0.304011,-0.689283,-0.463636,-0.027013,-0.288485,15.229773,-2.495626,-46.611755,,,,,,,
1504282497.222933,0.767265,0.315456,-2.840444,-0.328872,0.888415,1.260130,0.659916,-0.310250,-0.684293,-0.487583,-0.028587,-0.224414,16.205328,-2.491994,-46.234344,,,,,,,
1504282497.232943,0.771995,0.321301,-2.828262,-0.403791,0.837918,1.225932,0.661869,-0.315801,-0.679853,-0.483097,-0.027049,-0.199481,16.205328,-2.491994,-46.234344,,,,,,,
1504282497.242953,0.775736,0.326172,-2.815668,-0.515230,0.751502,1.183195,0.663322,-0.320419,-0.676266,-0.467262,-0.007386,-0.224430,17.406485,-2.861898,-46.078522,,,,,,,
1504282497.252963,0.778586,0.329985,-2.802709,-0.610405,0.688409,1.125502,0.664384,-0.324029,-0.673498,-0.484116,-0.001090,-0.261164,17.406485,-2.861898,-46.078522,,,,,,,
1504282497.262972,0.780722,0.332759,-2.789692,-0.687381,0.620925,1.048635,0.665186,-0.326652,-0.671436,-0.502207,0.003135,-0.231930,18.081747,-2.784460,-45.777435,,,,,,,
1504282497.272982,0.782398,0.334623,-2.776917,-0.725758,0.574439,0.967528,0.665879,-0.328414,-0.669887,-0.519105,0.022536,-0.227574,18.531103,-2.258337,-45.330261,,,,,,,
1504282497.282992,0.783613,0.335864,-2.764379,-0.756876,0.520403,0.916334,0.666405,-0.329585,-0.668789,-0.532875,0.041591,-0.245564,18.531103,-2.258337,-45.330261,,,,,,,
1504282497.293002,0.784036,0.336681,-2.751747,-0.793715,0.438674,0.898268,0.666498,-0.330356,-0.668315,-0.513818,0.044483,-0.278752,19.056768,-2.256872,-44.878967,,,,,,,
1504282497.303012,0.783715,0.337163,-2.738908,-0.830406,0.381443,0.889766,0.666170,-0.330811,-0.668417,-0.485522,0.027726,-0.310511,19.056768,-2.256872,-44.878967,,,,,,,
1504282497.313021,0.782923,0.337481,-2.725829,-0.855312,0.342210,0.900466,0.665566,-0.331111,-0.668870,-0.477837,0.023234,-0.296767,19.506170,-1.880285,-44.655670,,,,,,,
1504282497.323031,0.781558,0.337732,-2.712397,-0.878105,0.305083,0.918638,0.664595,-0.331348,-0.669718,-0.455641,0.033008,-0.273305,19.506170,-1.880285,-44.655670,,,,,,,
1504282497.333041,0.779652,0.338046,-2.698786,-0.878743,0.237934,0.939036,0.663244,-0.331644,-0.670910,-0.440023,0.048044,-0.250431,19.729513,-1.129568,-44.510712,,,,,,,
1504282497.343020,0.777124,0.338545,-2.684958,-0.867461,0.200513,0.970076,0.661429,-0.332115,-0.672466,-0.452674,0.095253,-0.254978,19.729513,-1.129568,-44.510712,,,,,,,
1504282497.353030,0.774085,0.339546,-2.671173,-0.836156,0.135216,1.006537,0.659150,-0.333059,-0.674235,-0.469788,0.136328,-0.238729,20.179876,-1.053304,-44.135162,,,,,,,
1504282497.363040,0.770325,0.341000,-2.657329,-0.792054,0.069812,1.044088,0.656272,-0.334430,-0.676360,-0.456977,0.166370,-0.242326,20.179876,-1.053304,-44.135162,,,,,,,
1504282497.373049,0.765727,0.343018,-2.643627,-0.736381,-0.020189,1.075298,0.652686,-0.336331,-0.678883,-0.454810,0.176068,-0.248058,20.179159,-0.678594,-43.988007,,,,,,,
1504282497.383059,0.760443,0.345658,-2.630180,-0.665622,-0.094326,1.102237,0.648476,-0.338816,-0.681677,-0.448402,0.191187,-0.251230,20.179159,-0.678594,-43.988007,,,,,,,
1504282497.393069,0.754366,0.348806,-2.616956,-0.613013,-0.172572,1.124881,0.643588,-0.341776,-0.684824,-0.434176,0.195154,-0.237402,20.178930,-0.454046,-43.764679,,,,,,,
1504282497.403079,0.747610,0.352383,-2.604062,-0.550771,-0.258337,1.129410,0.638111,-0.345135,-0.688256,-0.434543,0.185208,-0.212821,20.178930,-0.454046,-43.764679,,,,,,,
1504282497.413088,0.740145,0.356113,-2.591350,-0.510674,-0.314079,1.129578,0.632083,-0.348634,-0.692045,-0.447909,0.181809,-0.192599,20.327963,-0.153066,-43.916565,,,,,,,
1504282497.423098,0.731990,0.360120,-2.578806,-0.483636,-0.395298,1.140442,0.625479,-0.352386,-0.696132,-0.460791,0.180435,-0.158116,20.327963,-0.153066,-43.916565,,,,,,,
1504282497.433108,0.722834,0.364200,-2.566224,-0.475902,-0.490209,1.149162,0.618123,-0.356201,-0.700745,-0.446523,0.217194,-0.155029,20.102621,0.070612,-43.768799,,,,,,,
1504282497.443118,0.712994,0.368382,-2.553734,-0.447604,-0.551186,1.153588,0.610218,-0.360107,-0.705660,-0.473454,0.215057,-0.147016,20.102621,0.070612,-43.768799,,,,,,,
1504282497.453128,0.702536,0.372806,-2.541318,-0.406562,-0.612280,1.169778,0.601770,-0.364230,-0.710781,-0.455164,0.232928,-0.126789,19.276907,0.217356,-43.996979,,,,,,,
1504282497.463137,0.691375,0.377326,-2.528803,-0.397492,-0.668848,1.185904,0.592744,-0.368436,-0.716177,-0.435594,0.244962,-0.120600,19.276907,0.217356,-43.996979,,,,,,,
1504282497.473147,0.679741,0.382080,-2.516374,-0.352028,-0.713989,1.196737,0.583265,-0.372851,-0.721654,-0.442044,0.229846,-0.107509,19.052282,0.066355,-43.996399,,,,,,,
1504282497.483157,0.667686,0.387158,-2.504108,-0.295848,-0.753889,1.206511,0.573343,-0.377558,-0.727136,-0.442301,0.223795,-0.080618,19.052282,0.066355,-43.996399,,,,,,,
1504282497.493167,0.655303,0.392833,-2.492279,-0.199136,-0.797316,1.213160,0.562980,-0.382807,-0.732470,-0.445793,0.217356,-0.069410,18.301947,0.063426,-44.223236,,,,,,,
1504282497.503176,0.642695,0.399281,-2.481030,-0.081035,-0.837717,1.214503,0.552210,-0.388756,-0.737518,-0.444345,0.222924,-0.071243,18.301947,0.063426,-44.223236,,,,,,,
1504282497.513186,0.629897,0.406732,-2.470502,0.055230,-0.870815,1.222269,0.541005,-0.395610,-0.742163,-0.447362,0.226634,-0.079446,17.853018,-0.538000,-44.519867,,,,,,,
1504282497.523196,0.616937,0.415454,-2.460623,0.224383,-0.912734,1.253591,0.529325,-0.403605,-0.746270,-0.463590,0.216349,-0.097587,17.853018,-0.538000,-44.519867,,,,,,,
1504282497.533206,0.603728,0.425636,-2.451164,0.376464,-0.942810,1.304075,0.517062,-0.412901,-0.749773,-0.429110,0.227064,-0.118070,17.103277,-0.691228,-44.595581,,,,,,,
1504282497.543215,0.590229,0.437322,-2.441877,0.527480,-0.963302,1.369485,0.504174,-0.423515,-0.752625,-0.397759,0.231559,-0.104889,17.103277,-0.691228,-44.595581,,,,,,,
1504282497.553225,0.576705,0.450508,-2.432682,0.684044,-0.957201,1.434857,0.490861,-0.435423,-0.754627,-0.396959,0.223082,-0.078274,16.128744,-1.144704,-45.044617,,,,,,,
1504282497.563204,0.563059,0.465223,-2.423504,0.824542,-0.957362,1.502347,0.477047,-0.448622,-0.755754,-0.390056,0.236495,-0.050886,16.128744,-1.144704,-45.044617,,,,,,,
1504282497.573214,0.549377,0.481308,-2.414174,0.960953,-0.935112,1.569790,0.462834,-0.462939,-0.755958,-0.399662,0.259127,-0.049569,15.306677,-2.497823,-45.336517,,,,,,,
1504282497.583224,0.535666,0.498797,-2.404629,1.091982,-0.916020,1.641500,0.448225,-0.478369,-0.755154,-0.408277,0.273474,-0.037967,15.306677,-2.497823,-45.336517,,,,,,,
1504282497.593234,0.521727,0.517334,-2.394580,1.176053,-0.901863,1.707799,0.433160,-0.494565,-0.753510,-0.382013,0.255124,-0.036926,14.484182,-3.626089,-45.555115,,,,,,,
1504282497.603243,0.507269,0.536552,-2.383829,1.222679,-0.904440,1.767659,0.417526,-0.511176,-0.751246,-0.338547,0.220984,-0.038381,14.484182,-3.626089,-45.555115,,,,,,,
1504282497.613253,0.492307,0.555917,-2.372074,1.216259,-0.873540,1.820964,0.401485,-0.527722,-0.748545,-0.328823,0.199078,-0.034765,13.812536,-5.053838,-45.696075,,,,,,,
1504282497.623263,0.477048,0.575305,-2.359271,1.204650,-0.827673,1.868896,0.385246,-0.544091,-0.745353,-0.329720,0.216073,-0.006692,13.812536,-5.053838,-45.696075,,,,,,,
1504282497.633273,0.461324,0.594399,-2.345300,1.165279,-0.787966,1.911454,0.368787,-0.560011,-0.741879,-0.319913,0.240430,0.020092,12.915625,-6.332738,-45.763733,,,,,,,
1504282497.643283,0.445288,0.613047,-2.330041,1.112235,-0.721510,1.957143,0.352284,-0.575362,-0.738143,-0.331334,0.239165,0.012709,12.915625,-6.332738,-45.763733,,,,,,,
1504282497.653292,0.428745,0.631130,-2.313299,1.042038,-0.661312,2.009218,0.335644,-0.590057,-0.734286,-0.317730,0.240967,-0.001569,12.018347,-7.685873,-46.205872,,,,,,,
1504282497.663302,0.411613,0.648393,-2.294952,0.950506,-0.602002,2.059123,0.318892,-0.603906,-0.730483,-0.295470,0.235635,-0.030061,12.018347,-7.685873,-46.205872,,,,,,,
1504282497.673312,0.393972,0.664593,-2.274899,0.838899,-0.520146,2.105750,0.302161,-0.616739,-0.726864,-0.278999,0.223657,-0.036304,11.422461,-9.189016,-45.971039,,,,,,,
1504282497.683322,0.376011,0.679766,-2.253375,0.751961,-0.432082,2.136399,0.285589,-0.628611,-0.723386,-0.262594,0.202875,-0.012728,11.422461,-9.189016,-45.971039,,,,,,,
1504282497.693331,0.357866,0.693821,-2.230513,0.652246,-0.346036,2.158490,0.269296,-0.639479,-0.720102,-0.247491,0.184172,-0.007453,10.525030,-10.168219,-45.890930,,,,,,,
1504282497.703341,0.339666,0.707098,-2.206630,0.616599,-0.259442,2.171084,0.253294,-0.649630,-0.716814,-0.227232,0.159869,-0.035521,10.525030,-10.168219,-45.890930,,,,,,,
1504282497.713351,0.321448,0.719727,-2.181967,0.584054,-0.193107,2.170911,0.237583,-0.659179,-0.713468,-0.209507,0.133133,-0.074969,10.077063,-11.069952,-46.035278,,,,,,,
1504282497.723361,0.303245,0.731961,-2.156829,0.586681,-0.138771,2.159079,0.222132,-0.668330,-0.709924,-0.182368,0.091075,-0.116248,10.077063,-11.069952,-46.035278,,,,,,,
1504282497.733370,0.285258,0.743961,-2.131565,0.617170,-0.082510,2.125943,0.207055,-0.677207,-0.706058,-0.155008,0.058479,-0.147854,9.855719,-12.346563,-45.726288,,,,,,,
1504282497.743380,0.267684,0.755871,-2.106324,0.646632,-0.021978,2.091730,0.192469,-0.685923,-0.701759,-0.151392,0.058527,-0.169060,9.855719,-12.346563,-45.726288,,,,,,,
1504282497.753384,0.250536,0.767480,-2.081024,0.650582,0.050486,2.057452,0.178421,-0.694324,-0.697195,-0.154358,0.089847,-0.193064,9.557791,-13.172918,-45.720825,,,,,,,
1504282497.763394,0.233870,0.778504,-2.055522,0.624741,0.135978,2.027369,0.164993,-0.702215,-0.692583,-0.160812,0.121954,-0.181929,9.557791,-13.172918,-45.720825,,,,,,,
1504282497.773404,0.217802,0.788920,-2.029835,0.603226,0.229957,1.999414,0.152255,-0.709593,-0.687965,-0.153690,0.128904,-0.142159,9.335592,-14.149374,-45.489044,,,,,,,
1504282497.783383,0.201812,0.798511,-2.003712,0.537507,0.275268,1.985344,0.139865,-0.716318,-0.683613,-0.121494,0.128702,-0.150875,9.335592,-14.149374,-45.489044,,,,,,,
1504282497.793393,0.186082,0.807406,-1.977491,0.515694,0.323443,1.943593,0.127911,-0.722496,-0.679440,-0.088147,0.125023,-0.202793,8.887808,-14.901846,-45.259521,,,,,,,
1504282497.803402,0.170826,0.815756,-1.951509,0.503523,0.370483,1.892253,0.116501,-0.728244,-0.675343,-0.088578,0.130237,-0.199260,8.887808,-14.901846,-45.259521,,,,,,,
1504282497.813412,0.156094,0.823656,-1.925873,0.489109,0.402625,1.838801,0.105643,-0.733635,-0.671282,-0.102789,0.161675,-0.196440,9.039724,-15.576483,-45.104095,,,,,,,
1504282497.823422,0.141165,0.830316,-1.900238,0.502480,0.435608,1.777925,0.094920,-0.738145,-0.667932,-0.096721,0.205613,-0.218314,9.039724,-15.576483,-45.104095,,,,,,,
1504282497.833432,0.127546,0.837587,-1.875629,0.497692,0.468739,1.721286,0.085130,-0.743030,-0.663822,-0.088624,0.216312,-0.216992,9.340292,-15.800131,-45.101685,,,,,,,
1504282497.843441,0.114368,0.844410,-1.851330,0.476793,0.497726,1.679570,0.075794,-0.747580,-0.659833,-0.063480,0.242315,-0.198992,9.340292,-15.800131,-45.101685,,,,,,,
1504282497.853451,0.101574,0.850893,-1.827386,0.472961,0.522316,1.631487,0.066854,-0.751869,-0.655914,-0.020909,0.263344,-0.192643,9.268682,-16.926229,-44.718414,,,,,,,
1504282497.863461,0.089094,0.855220,-1.803779,0.499996,0.540246,1.587740,0.058373,-0.754715,-0.653450,0.005485,0.266663,-0.197364,9.268682,-16.926229,-44.718414,,,,,,,
1504282497.873471,0.076990,0.861730,-1.780679,0.533234,0.534687,1.546179,0.050080,-0.758970,-0.649197,0.032439,0.272077,-0.217060,9.495260,-17.375814,-44.414459,,,,,,,
1504282497.883480,0.065188,0.868508,-1.758154,0.584717,0.533256,1.489698,0.042079,-0.763366,-0.644594,0.052250,0.281799,-0.247923,9.495260,-17.375814,-44.414459,,,,,,,
1504282497.893490,0.053784,0.875430,-1.736269,0.608464,0.541521,1.429893,0.034441,-0.767819,-0.639741,0.056151,0.275280,-0.238174,9.197973,-18.277761,-44.108429,,,,,,,
1504282497.903500,0.043748,0.880064,-1.715664,0.630153,0.550981,1.374410,0.027863,-0.770779,-0.636492,0.080139,0.258069,-0.197583,9.197973,-18.277761,-44.108429,,,,,,,
1504282497.913510,0.033342,0.886835,-1.695004,0.627287,0.559584,1.321019,0.021064,-0.775076,-0.631517,0.114602,0.252203,-0.193571,9.424261,-18.652197,-43.880096,,,,,,,
1504282497.923519,0.023504,0.893592,-1.675071,0.643674,0.566976,1.255923,0.014727,-0.779328,-0.626444,0.122511,0.240204,-0.220129,9.424261,-18.652197,-43.880096,,,,,,,
1504282497.933529,0.014243,0.900227,-1.655888,0.639786,0.574534,1.191859,0.008851,-0.783468,-0.621369,0.118957,0.238424,-0.223113,9.876669,-19.475622,-43.647766,,,,,,,
1504282497.943539,0.005581,0.906644,-1.637511,0.629456,0.575754,1.125660,0.003440,-0.787439,-0.616382,0.111443,0.242029,-0.215725,9.876669,-19.475622,-43.647766,,,,,,,
1504282497.953549,-0.002261,0.912869,-1.620092,0.620412,0.598285,1.049819,-0.001382,-0.791261,-0.611477,0.113748,0.252016,-0.210697,9.728216,-20.001608,-43.494202,,,,,,,
1504282497.963559,-0.009393,0.918968,-1.603529,0.608983,0.599506,0.990022,-0.005698,-0.794976,-0.606614,0.124534,0.263192,-0.190948,9.728216,-20.001608,-43.494202,,,,,,,
1504282497.973568,-0.015988,0.924875,-1.587794,0.598543,0.589002,0.927046,-0.009623,-0.798546,-0.601857,0.134791,0.267158,-0.219126,10.256292,-20.825598,-42.811676,,,,,,,
1504282497.983578,-0.021961,0.930450,-1.573053,0.565776,0.582953,0.855484,-0.013120,-0.801889,-0.597329,0.123136,0.271676,-0.246024,10.256292,-20.825598,-42.811676,,,,,,,
1504282497.993588,-0.026982,0.935785,-1.559462,0.538494,0.589655,0.774302,-0.016003,-0.805065,-0.592970,0.118786,0.283627,-0.193010,10.183020,-21.426229,-42.657349,,,,,,,
1504282498.003567,-0.030752,0.940386,-1.547276,0.463364,0.611679,0.684472,-0.018125,-0.807785,-0.589198,0.112394,0.258561,-0.128209,10.183020,-21.426229,-42.657349,,,,,,,
1504282498.013577,-0.033187,0.944197,-1.536513,0.380756,0.633763,0.596763,-0.019457,-0.810026,-0.586071,0.097216,0.215986,-0.119724,10.559713,-21.875296,-42.278046,,,,,,,
1504282498.023587,-0.033941,0.947477,-1.527364,0.339983,0.677889,0.499481,-0.019808,-0.811946,-0.583397,0.073733,0.198298,-0.135033,10.559713,-21.875296,-42.278046,,,,,,,
1504282498.033596,-0.032846,0.950704,-1.519832,0.339845,0.735531,0.405447,-0.019084,-0.813825,-0.580797,0.027964,0.171735,-0.166075,11.160727,-22.098196,-41.974915,,,,,,,
1504282498.043606,-0.030342,0.954277,-1.513389,0.376821,0.788564,0.349913,-0.017541,-0.815896,-0.577932,0.023888,0.145913,-0.197626,11.160727,-22.098196,-41.974915,,,,,,,
1504282498.053616,-0.027152,0.958257,-1.507337,0.419829,0.821258,0.336054,-0.015609,-0.818191,-0.574735,0.057616,0.128524,-0.241686,11.312536,-22.548422,-41.521149,,,,,,,
1504282498.063626,-0.023669,0.963051,-1.501206,0.514012,0.859906,0.339351,-0.013514,-0.820937,-0.570858,0.094111,0.127685,-0.282947,11.312536,-22.548422,-41.521149,,,,,,,
1504282498.073635,-0.020138,0.968898,-1.494902,0.617535,0.869699,0.349120,-0.011402,-0.824262,-0.566093,0.122150,0.126768,-0.294243,12.289557,-22.995230,-40.915314,,,,,,,
1504282498.083645,-0.016698,0.975526,-1.488464,0.694398,0.876523,0.351375,-0.009363,-0.827997,-0.560655,0.122797,0.097375,-0.321135,12.289557,-22.995230,-40.915314,,,,,,,
1504282498.093655,-0.013359,0.983040,-1.481905,0.771227,0.879085,0.353639,-0.007407,-0.832187,-0.554446,0.119697,0.098026,-0.314497,13.042120,-23.742758,-40.457855,,,,,,,
1504282498.103665,-0.010121,0.991064,-1.475418,0.816980,0.857406,0.344150,-0.005544,-0.836609,-0.547772,0.095907,0.122055,-0.324222,13.042120,-23.742758,-40.457855,,,,,,,
1504282498.113675,-0.006726,0.999234,-1.469445,0.814822,0.831887,0.307899,-0.003639,-0.841057,-0.540935,0.058311,0.164391,-0.343755,13.643393,-24.115515,-40.228546,,,,,,,
1504282498.123684,-0.002891,1.007184,-1.464288,0.788232,0.812974,0.260921,-0.001545,-0.845331,-0.534241,0.017963,0.190500,-0.308837,13.643393,-24.115515,-40.228546,,,,,,,
1504282498.133694,0.001528,1.014682,-1.460036,0.733945,0.799617,0.213885,0.000807,-0.849312,-0.527890,0.004381,0.202309,-0.260517,14.096624,-25.089544,-39.695129,,,,,,,
1504282498.143704,0.006429,1.021361,-1.456641,0.641122,0.771657,0.168942,0.003357,-0.852820,-0.522195,0.015319,0.226736,-0.243430,14.096624,-25.089544,-39.695129,,,,,,,
1504282498.153714,0.011856,1.027072,-1.454352,0.545031,0.726689,0.110148,0.006134,-0.855788,-0.517290,0.027726,0.268371,-0.240416,14.397680,-25.239096,-39.243225,,,,,,,
1504282498.163723,0.017941,1.032051,-1.453228,0.483204,0.696358,0.050320,0.009204,-0.858353,-0.512977,0.009579,0.321259,-0.238823,14.397680,-25.239096,-39.243225,,,,,,,
1504282498.173733,0.024654,1.036321,-1.453247,0.410650,0.660784,-0.006316,0.012557,-0.860536,-0.509235,0.001572,0.363496,-0.225430,14.849783,-25.763113,-38.713196,,,,,,,
1504282498.183743,0.031915,1.039976,-1.454427,0.353988,0.611226,-0.062899,0.016154,-0.862392,-0.505983,0.012243,0.390606,-0.224425,14.849783,-25.763113,-38.713196,,,,,,,
1504282498.193753,0.039538,1.043269,-1.456743,0.330277,0.547542,-0.117265,0.019898,-0.864055,-0.503005,0.019164,0.387767,-0.223420,15.301443,-26.286551,-38.483124,,,,,,,
1504282498.203762,0.047723,1.046612,-1.460279,0.347239,0.497380,-0.175854,0.023877,-0.865732,-0.499937,0.018146,0.384668,-0.243517,15.301443,-26.286551,-38.483124,,,,,,,
1504282498.213772,0.056128,1.050331,-1.464764,0.393911,0.440557,-0.211965,0.027897,-0.867588,-0.496501,0.034512,0.383015,-0.236074,15.752569,-26.286016,-37.731995,,,,,,,
1504282498.223782,0.064625,1.054524,-1.469941,0.446977,0.392190,-0.233136,0.031879,-0.869665,-0.492611,0.045788,0.359015,-0.237812,15.752569,-26.286016,-37.731995,,,,,,,
1504282498.233761,0.072904,1.059335,-1.475240,0.521336,0.357468,-0.223339,0.035652,-0.872030,-0.488152,0.075097,0.328878,-0.255454,16.203238,-26.509146,-37.654175,,,,,,,
1504282498.243771,0.080786,1.064773,-1.480283,0.567022,0.350669,-0.195495,0.039115,-0.874679,-0.483122,0.108453,0.281692,-0.250994,16.203238,-26.509146,-37.654175,,,,,,,
1504282498.253781,0.087914,1.070994,-1.484523,0.666867,0.332734,-0.134449,0.042078,-0.877678,-0.477401,0.122427,0.243614,-0.262360,16.730230,-27.032690,-37.198975,,,,,,,
1504282498.263790,0.093935,1.078000,-1.487697,0.722964,0.318349,-0.067080,0.044374,-0.881013,-0.471005,0.133818,0.229677,-0.287799,16.730230,-27.032690,-37.198975,,,,,,,
1504282498.273800,0.098649,1.085716,-1.489803,0.786447,0.286865,-0.010342,0.045924,-0.884638,-0.464012,0.150121,0.221536,-0.311195,16.957373,-27.707281,-36.893311,,,,,,,
1504282498.283810,0.102640,1.093909,-1.490968,0.825832,0.306735,0.039859,0.047031,-0.888428,-0.456600,0.132275,0.203492,-0.266560,16.957373,-27.707281,-36.893311,,,,,,,
1504282498.293820,0.106091,1.102226,-1.491175,0.823627,0.329079,0.089984,0.047822,-0.892215,-0.449072,0.097823,0.196185,-0.219644,17.258917,-28.006979,-36.365326,,,,,,,
1504282498.303830,0.108873,1.110516,-1.490502,0.819364,0.353583,0.128360,0.048266,-0.895928,-0.441569,0.081831,0.203789,-0.230351,17.258917,-28.006979,-36.365326,,,,,,,
1504282498.313839,0.111087,1.118526,-1.489101,0.780881,0.362395,0.157097,0.048446,-0.899457,-0.434315,0.039979,0.223676,-0.281155,17.410879,-28.382650,-35.687134,,,,,,,
1504282498.323849,0.113367,1.126180,-1.486799,0.746275,0.461741,0.195289,0.048656,-0.902776,-0.427350,0.009922,0.265340,-0.239123,17.410879,-28.382650,-35.687134,,,,,,,
1504282498.333859,0.115072,1.133254,-1.483050,0.654618,0.509323,0.251618,0.048650,-0.905796,-0.420912,0.065669,0.215778,-0.148866,17.038015,-29.059927,-35.382965,,,,,,,
1504282498.343869,0.116060,1.138978,-1.477759,0.533659,0.623224,0.299241,0.048465,-0.908206,-0.415707,0.061826,0.204074,-0.219837,17.038015,-29.059927,-35.382965,,,,,,,
1504282498.353878,0.116854,1.144470,-1.470663,0.500046,0.738504,0.377967,0.048213,-0.910491,-0.410709,-0.008906,0.247222,-0.168393,17.490393,-29.733816,-34.926819,,,,,,,
1504282498.363888,0.116845,1.149156,-1.461988,0.397947,0.803241,0.416103,0.047711,-0.912419,-0.406467,-0.030209,0.174778,-0.165127,17.490393,-29.733816,-34.926819,,,,,,,
1504282498.373898,0.116343,1.153967,-1.452098,0.470617,0.847349,0.463116,0.046997,-0.914377,-0.402126,-0.077347,0.210001,-0.244404,18.167273,-30.256521,-34.546173,,,,,,,
1504282498.383908,0.115306,1.159481,-1.441373,0.499586,0.887570,0.495118,0.045999,-0.916596,-0.397160,-0.054620,0.280228,-0.241099,18.167273,-30.256521,-34.546173,,,,,,,
1504282498.393917,0.114257,1.165096,-1.430446,0.511426,0.904515,0.501513,0.044995,-0.918826,-0.392089,-0.053708,0.263553,-0.299607,18.543432,-30.405890,-34.019135,,,,,,,
1504282498.403927,0.111846,1.171099,-1.417909,0.547568,0.935041,0.577307,0.043433,-0.921179,-0.386708,-0.026618,0.262243,-0.211100,18.543432,-30.405890,-34.019135,,,,,,,
1504282498.413937,0.108810,1.177604,-1.403956,0.598004,0.998516,0.621046,0.041607,-0.923691,-0.380873,0.019504,0.291626,-0.198487,18.846075,-31.006033,-33.263885,,,,,,,
1504282498.423947,0.104424,1.184619,-1.387811,0.640820,1.068406,0.705322,0.039260,-0.926356,-0.374598,0.057908,0.355250,-0.244756,18.846075,-31.006033,-33.263885,,,,,,,
1504282498.433956,0.098352,1.192138,-1.369222,0.688920,1.128667,0.784287,0.036300,-0.929161,-0.367888,0.061021,0.348900,-0.222108,19.148428,-31.456335,-32.434723,,,,,,,
1504282498.443966,0.090930,1.200146,-1.348626,0.741334,1.179327,0.838726,0.032892,-0.932092,-0.360725,0.050315,0.379037,-0.247536,19.148428,-31.456335,-32.434723,,,,,,,
1504282498.453946,0.082189,1.208593,-1.326019,0.783299,1.255651,0.889899,0.029090,-0.935118,-0.353139,0.030664,0.378173,-0.252940,19.451330,-32.206333,-31.753357,,,,,,,
1504282498.463955,0.072494,1.217642,-1.301757,0.850876,1.323256,0.926189,0.025051,-0.938286,-0.344951,0.022267,0.329919,-0.230214,19.451330,-32.206333,-31.753357,,,,,,,
1504282498.473965,0.061372,1.227047,-1.275485,0.881968,1.368776,0.968859,0.020670,-0.941498,-0.336385,0.025503,0.301941,-0.235164,19.305548,-33.483356,-31.069122,,,,,,,
1504282498.483975,0.048476,1.236750,-1.247058,0.930047,1.397118,1.000914,0.015887,-0.944724,-0.327483,0.025922,0.270667,-0.269945,19.305548,-33.483356,-31.069122,,,,,,,
1504282498.493985,0.034035,1.247030,-1.216687,1.007045,1.443330,1.039392,0.010826,-0.948044,-0.317955,0.011376,0.261993,-0.274604,19.984381,-34.158161,-29.637360,,,,,,,
1504282498.503994,0.015322,1.259051,-1.182565,1.223594,1.342383,1.099720,0.004699,-0.951800,-0.306685,0.024414,0.253100,-0.299272,19.984381,-34.158161,-29.637360,,,,,,,
1504282498.514004,-0.006311,1.271688,-1.146845,1.278977,1.184239,1.079814,-0.001860,-0.955600,-0.294662,0.163282,0.248645,-0.436677,20.063421,-35.134922,-28.579834,,,,,,,
1504282498.524014,-0.030884,1.284998,-1.109946,1.334901,1.067693,1.018207,-0.008706,-0.959437,-0.281789,0.129998,0.242716,-0.413524,20.063421,-35.134922,-28.579834,,,,,,,
1504282498.534024,-0.054587,1.298025,-1.073488,1.370226,1.159137,0.927378,-0.014699,-0.963028,-0.269000,0.079610,0.289764,-0.270566,19.617559,-36.114185,-27.448608,,,,,,,
1504282498.544033,-0.077707,1.311062,-1.037174,1.336699,1.186137,0.847217,-0.019937,-0.966458,-0.256049,0.091867,0.283307,-0.196298,19.617559,-36.114185,-27.448608,,,,,,,
1504282498.554043,-0.101131,1.322466,-1.000875,1.175770,1.175795,0.794654,-0.024814,-0.969324,-0.244530,0.104694,0.222101,-0.282631,19.846930,-37.090733,-26.165710,,,,,,,
1504282498.564053,-0.125169,1.331842,-0.963661,0.979862,1.220044,0.783562,-0.029549,-0.971586,-0.234835,0.135216,0.189741,-0.288175,19.846930,-37.090733,-26.165710,,,,,,,
1504282498.574063,-0.148808,1.338986,-0.926197,0.784279,1.298401,0.761737,-0.034061,-0.973252,-0.227201,0.180744,0.097687,-0.212298,19.850958,-38.067829,-25.108398,,,,,,,
1504282498.584072,-0.171587,1.344479,-0.889187,0.640729,1.341172,0.732593,-0.038314,-0.974499,-0.221095,0.149001,0.007275,-0.211339,19.850958,-38.067829,-25.108398,,,,,,,
1504282498.594082,-0.192759,1.348635,-0.853369,0.526028,1.385842,0.698159,-0.042210,-0.975423,-0.216258,0.098316,-0.037028,-0.284551,19.852880,-38.294621,-24.206696,,,,,,,
1504282498.604092,-0.212293,1.351766,-0.818758,0.442232,1.433442,0.675514,-0.045782,-0.976109,-0.212405,0.057058,-0.055675,-0.313047,19.852880,-38.294621,-24.206696,,,,,,,
1504282498.614102,-0.231770,1.354424,-0.783615,0.421351,1.498602,0.688172,-0.049314,-0.976683,-0.208947,0.041211,-0.049318,-0.291923,20.081793,-39.270557,-23.223816,,,,,,,
1504282498.624112,-0.253603,1.356579,-0.745744,0.396695,1.523249,0.751063,-0.053336,-0.977143,-0.205784,0.076880,-0.004012,-0.342877,20.081793,-39.270557,-23.223816,,,,,,,
1504282498.634121,-0.280878,1.358173,-0.701998,0.403696,1.553945,0.894053,-0.058496,-0.977481,-0.202755,0.200433,0.094623,-0.432545,20.084204,-39.647495,-22.245972,,,,,,,
1504282498.644131,-0.314719,1.359100,-0.650923,0.420507,1.611199,1.038080,-0.065042,-0.977676,-0.199799,0.298731,0.066924,-0.407120,20.084204,-39.647495,-22.245972,,,,,,,
1504282498.654141,-0.356199,1.359483,-0.592504,0.447037,1.543708,1.172738,-0.073141,-0.977756,-0.196578,0.388876,-0.021984,-0.350419,20.086950,-40.249149,-21.416412,,,,,,,
1504282498.664151,-0.403452,1.359274,-0.529240,0.488352,1.427128,1.259475,-0.082425,-0.977712,-0.193092,0.425534,-0.045740,-0.374901,20.086950,-40.249149,-21.416412,,,,,,,
1504282498.674160,-0.455382,1.358985,-0.462378,0.579058,1.314461,1.289718,-0.092461,-0.977652,-0.188807,0.419884,-0.026132,-0.356618,19.865835,-41.077549,-20.210785,,,,,,,
1504282498.684140,-0.509911,1.358847,-0.394210,0.678369,1.177271,1.266649,-0.102679,-0.977623,-0.183605,0.379809,0.001777,-0.314824,19.865835,-41.077549,-20.210785,,,,,,,
1504282498.694149,-0.565737,1.359118,-0.326022,0.790794,1.049611,1.196620,-0.112622,-0.977680,-0.177366,0.318845,0.018207,-0.317431,19.568350,-41.680256,-19.531982,,,,,,,
1504282498.704159,-0.623519,1.360148,-0.257026,0.931095,0.935581,1.121279,-0.122089,-0.977895,-0.169749,0.258213,0.037359,-0.321584,19.568350,-41.680256,-19.531982,,,,,,,
1504282498.714169,-0.685510,1.362022,-0.185092,1.099908,0.794658,1.062045,-0.131210,-0.978286,-0.160440,0.234741,0.065291,-0.333991,19.047079,-42.360294,-18.178192,,,,,,,
1504282498.724179,-0.753406,1.363998,-0.108967,1.210537,0.610479,1.047618,-0.140470,-0.978693,-0.149758,0.251218,0.070597,-0.369697,19.047079,-42.360294,-18.178192,,,,,,,
1504282498.734188,-0.829501,1.365925,-0.026401,1.377652,0.427951,1.048230,-0.150057,-0.979087,-0.137372,0.308519,0.047904,-0.370471,18.300817,-43.265614,-17.198303,,,,,,,
1504282498.744198,-0.914637,1.367481,0.063323,1.524297,0.223208,1.053114,-0.159988,-0.979402,-0.123186,0.355102,0.060793,-0.350691,18.300817,-43.265614,-17.198303,,,,,,,
1504282498.754198,-1.008488,1.368133,0.159930,1.673103,0.025901,1.064394,-0.170287,-0.979534,-0.107310,0.347670,0.064465,-0.351278,17.253759,-43.722736,-15.997467,,,,,,,
1504282498.764208,-1.112748,1.367652,0.315615,1.860200,-0.189698,1.065436,-0.180953,-0.979437,-0.089214,0.312637,0.065085,-0.343220,17.253759,-43.722736,-15.997467,,,,,,,
1504282498.774217,-1.226126,1.365714,0.428085,2.090296,-0.366355,1.069348,-0.191670,-0.979044,-0.068810,0.280705,0.115183,-0.355507,16.658514,-44.852985,-14.715485,,,,,,,
1504282498.784227,-1.350949,1.361719,0.550654,2.374859,-0.524300,1.092535,-0.202562,-0.978223,-0.045264,0.268053,0.166959,-0.369058,16.658514,-44.852985,-14.715485,,,,,,,
1504282498.794237,-1.481220,1.354328,0.677677,2.572118,-0.632553,1.158180,-0.213920,-0.976662,-0.019214,0.247017,0.187233,-0.430387,15.613363,-45.761143,-12.986267,,,,,,,
1504282498.804247,-1.605603,1.342727,0.798046,2.621090,-0.716178,1.259815,-0.225960,-0.974105,0.007868,0.239800,0.162337,-0.459498,15.613363,-45.761143,-12.986267,,,,,,,
1504282498.814257,-1.715691,1.326902,0.903615,2.588224,-0.746937,1.382564,-0.238953,-0.970405,0.034867,0.274140,0.057929,-0.414018,14.568274,-46.594593,-11.107635,,,,,,,
1504282498.824266,-1.809560,1.307662,0.992819,2.536441,-0.755141,1.483892,-0.252730,-0.965579,0.061516,0.315840,-0.029935,-0.336129,14.568274,-46.594593,-11.107635,,,,,,,
1504282498.834276,-1.885466,1.286226,1.063773,2.382420,-0.760337,1.551948,-0.266960,-0.959782,0.086891,0.305122,-0.124248,-0.301186,13.298620,-47.653919,-9.302887,,,,,,,
1504282498.844286,-1.945449,1.263676,1.118790,2.236380,-0.722939,1.585786,-0.281344,-0.953208,0.110632,0.256732,-0.191842,-0.276083,13.298620,-47.653919,-9.302887,,,,,,,
1504282498.854296,-1.993075,1.240788,1.161674,2.089586,-0.669512,1.582235,-0.295585,-0.946040,0.132809,0.224006,-0.175863,-0.265820,11.878653,-48.489216,-7.350159,,,,,,,
1504282498.864305,-2.031091,1.218293,1.195618,1.955025,-0.582040,1.533814,-0.309315,-0.938511,0.153363,0.177937,-0.144145,-0.293622,11.878653,-48.489216,-7.350159,,,,,,,
1504282498.874315,-2.062875,1.196335,1.224086,1.893201,-0.484489,1.464154,-0.322374,-0.930705,0.172812,0.134477,-0.116811,-0.310919,10.232611,-49.174625,-5.849121,,,,,,,
1504282498.884325,-2.090017,1.175208,1.249012,1.816595,-0.378273,1.377374,-0.334564,-0.922770,0.191212,0.098541,-0.095693,-0.309987,10.232611,-49.174625,-5.849121,,,,,,,
1504282498.894335,-2.112190,1.154956,1.269437,1.691284,-0.329344,1.322575,-0.346189,-0.914777,0.208172,0.057187,-0.165224,-0.330258,8.885595,-49.334141,-4.126312,,,,,,,
1504282498.904314,-2.131803,1.135403,1.288197,1.694692,-0.220597,1.241266,-0.357119,-0.906704,0.224397,0.084322,-0.176990,-0.372788,8.885595,-49.334141,-4.126312,,,,,,,
1504282498.914324,-2.152983,1.115529,1.310035,1.947798,-0.124533,1.132661,-0.367267,-0.898144,0.241771,0.128818,-0.170689,-0.376796,7.838873,-49.791691,-2.700500,,,,,,,
1504282498.924333,-2.176307,1.095179,1.335530,2.109234,-0.024507,1.013215,-0.376481,-0.889010,0.260621,0.150483,-0.118116,-0.394060,7.838873,-49.791691,-2.700500,,,,,,,
1504282498.934343,-2.198950,1.074864,1.361095,2.158818,-0.002469,0.947083,-0.385019,-0.879525,0.279635,0.135110,-0.183829,-0.410434,6.642462,-50.100834,-0.826172,,,,,,,
1504282498.944353,-2.220395,1.055285,1.385864,2.108762,0.071588,0.833721,-0.392573,-0.870041,0.298187,0.144908,-0.254853,-0.445892,6.642462,-50.100834,-0.826172,,,,,,,
1504282498.954363,-2.238830,1.037222,1.408151,1.942867,0.063491,0.710697,-0.399283,-0.860995,0.315058,0.199576,-0.223539,-0.433130,5.971075,-50.332890,1.198883,,,,,,,
1504282498.964373,-2.254487,1.020860,1.426592,1.680124,0.002829,0.668720,-0.405169,-0.852558,0.330125,0.259158,-0.217007,-0.397966,5.971075,-50.332890,1.198883,,,,,,,
1504282498.974382,-2.265384,1.006713,1.439116,1.326478,-0.053940,0.675679,-0.410774,-0.845079,0.342207,0.180687,-0.387297,-0.380766,5.448523,-50.413242,2.698181,,,,,,,
1504282498.984392,-2.273830,0.994598,1.447684,1.086180,-0.132864,0.596414,-0.415650,-0.838540,0.352258,0.155015,-0.411842,-0.364435,5.448523,-50.413242,2.698181,,,,,,,
1504282498.994402,-2.282531,0.983787,1.456598,1.082660,-0.114594,0.475759,-0.419410,-0.832601,0.361761,0.228324,-0.313807,-0.326163,4.924170,-50.042698,3.744110,,,,,,,
1504282499.004412,-2.291670,0.973365,1.466949,1.126399,-0.040265,0.381772,-0.422582,-0.826783,0.371287,0.233617,-0.244918,-0.251750,4.924170,-50.042698,3.744110,,,,,,,
1504282499.014421,-2.301002,0.963592,1.477826,1.095840,-0.043125,0.300602,-0.425098,-0.821247,0.380586,0.232655,-0.246274,-0.256577,4.476095,-50.047260,5.018036,,,,,,,
1504282499.024431,-2.310547,0.954894,1.488592,1.020211,-0.082903,0.211946,-0.426707,-0.816252,0.389427,0.256755,-0.232118,-0.328224,4.476095,-50.047260,5.018036,,,,,,,
1504282499.034441,-2.320266,0.947138,1.499308,0.974619,-0.101617,0.124373,-0.427524,-0.811747,0.397856,0.253406,-0.236242,-0.362364,4.326696,-49.749729,5.915405,,,,,,,
1504282499.044451,-2.330617,0.940159,1.510826,0.969783,-0.105729,0.017632,-0.427479,-0.807652,0.406153,0.250844,-0.217357,-0.370279,4.326696,-49.749729,5.915405,,,,,,,
1504282499.054460,-2.341779,0.933727,1.523286,0.980775,-0.113199,-0.059189,-0.426636,-0.803843,0.414510,0.252091,-0.229284,-0.372548,4.178427,-49.902195,6.816193,,,,,,,
1504282499.064470,-2.352976,0.927802,1.536089,0.953638,-0.083063,-0.131872,-0.425340,-0.800304,0.422610,0.244874,-0.254246,-0.374499,4.178427,-49.902195,6.816193,,,,,,,
1504282499.074480,-2.363964,0.922457,1.549130,0.922173,-0.055032,-0.196020,-0.423665,-0.797088,0.430301,0.244832,-0.239365,-0.386447,4.179815,-49.829288,7.865631,,,,,,,
1504282499.084490,-2.374400,0.917851,1.561841,0.851137,-0.023503,-0.235693,-0.421696,-0.794298,0.437337,0.243352,-0.244475,-0.396016,4.179815,-49.829288,7.865631,,,,,,,
1504282499.094499,-2.383814,0.914085,1.573980,0.756953,0.039134,-0.290404,-0.419613,-0.792004,0.443457,0.236035,-0.249515,-0.387091,4.480047,-49.603992,8.389709,,,,,,,
1504282499.104509,-2.392287,0.911268,1.585382,0.658039,0.058098,-0.322631,-0.417358,-0.790282,0.448628,0.239395,-0.241289,-0.379628,4.480047,-49.603992,8.389709,,,,,,,
1504282499.114519,-2.399634,0.909460,1.595830,0.536934,0.103884,-0.354944,-0.415016,-0.789172,0.452735,0.224922,-0.257428,-0.356360,4.780981,-49.529133,9.139893,,,,,,,
1504282499.124529,-2.405838,0.908396,1.605688,0.471464,0.171585,-0.382929,-0.412763,-0.788518,0.455923,0.241330,-0.234843,-0.332204,4.780981,-49.529133,9.139893,,,,,,,
1504282499.134508,-2.411221,0.908103,1.614796,0.369180,0.179902,-0.398064,-0.410457,-0.788338,0.458310,0.254329,-0.217430,-0.334760,5.155600,-49.153202,9.513000,,,,,,,
1504282499.144518,-2.415494,0.908661,1.622623,0.248676,0.189417,-0.395088,-0.408203,-0.788681,0.459731,0.260376,-0.258987,-0.319320,5.155600,-49.153202,9.513000,,,,,,,
1504282499.154528,-2.419022,0.910084,1.629054,0.125561,0.142470,-0.386679,-0.405835,-0.789555,0.460326,0.303586,-0.239116,-0.283141,5.156393,-49.154240,10.038025,,,,,,,
1504282499.164537,-2.421307,0.912286,1.633774,-0.013269,0.148904,-0.350639,-0.403635,-0.790905,0.459944,0.311243,-0.197484,-0.276961,5.156393,-49.154240,10.038025,,,,,,,
1504282499.174547,-2.421872,0.915241,1.636548,-0.143471,0.166988,-0.314605,-0.401833,-0.792710,0.458412,0.305458,-0.203018,-0.280526,5.606802,-49.227512,10.189697,,,,,,,
1504282499.184557,-2.421208,0.918952,1.637805,-0.255611,0.163632,-0.297715,-0.400194,-0.794966,0.455932,0.312013,-0.200532,-0.305343,5.606802,-49.227512,10.189697,,,,,,,
1504282499.194567,-2.419414,0.923319,1.637618,-0.359237,0.162329,-0.273342,-0.398712,-0.797608,0.452604,0.314376,-0.197646,-0.317380,6.130743,-49.074268,9.739868,,,,,,,
1504282499.204576,-2.416428,0.928349,1.636029,-0.464825,0.177035,-0.257540,-0.397396,-0.800632,0.448403,0.304195,-0.198850,-0.301598,6.130743,-49.074268,9.739868,,,,,,,
1504282499.214586,-2.412134,0.934024,1.633026,-0.568273,0.193852,-0.239603,-0.396283,-0.804019,0.443298,0.300015,-0.191159,-0.276504,6.432287,-49.822468,9.521210,,,,,,,
1504282499.224596,-2.406689,0.940287,1.628737,-0.652585,0.198796,-0.226949,-0.395307,-0.807727,0.437389,0.299802,-0.205777,-0.264553,6.432287,-49.822468,9.521210,,,,,,,
1504282499.234606,-2.400541,0.946963,1.623612,-0.713405,0.198231,-0.227054,-0.394339,-0.811645,0.430962,0.294760,-0.216446,-0.275826,6.355520,-49.297199,9.217102,,,,,,,
1504282499.244615,-2.393897,0.953999,1.640255,-0.754087,0.181590,-0.224811,-0.393301,-0.815735,0.424135,0.293417,-0.222046,-0.287706,6.355520,-49.297199,9.217102,,,,,,,
1504282499.254625,-2.387115,0.961262,1.646271,-0.781910,0.162696,-0.236479,-0.392100,-0.819915,0.417130,0.283000,-0.233613,-0.294953,5.979727,-49.522099,8.317841,,,,,,,
1504282499.264635,-2.380371,0.968712,1.647574,-0.793744,0.140464,-0.250276,-0.390680,-0.824157,0.410042,0.276437,-0.223450,-0.299462,5.979727,-49.522099,8.317841,,,,,,,
1504282499.274645,-2.373772,0.976330,1.646356,-0.806671,0.112907,-0.267283,-0.389005,-0.828448,0.402927,0.270978,-0.213758,-0.299411,6.279806,-49.819859,7.870819,,,,,,,
1504282499.284654,-2.367485,0.984115,1.643769,-0.809968,0.086337,-0.288555,-0.387010,-0.832783,0.395849,0.272050,-0.205517,-0.299673,6.279806,-49.819859,7.870819,,,,,,,
1504282499.294664,-2.361336,0.992149,1.640192,-0.823889,0.064115,-0.311993,-0.384717,-0.837203,0.388694,0.269590,-0.200883,-0.293647,6.653814,-49.742130,7.346191,,,,,,,
1504282499.304674,-2.355498,1.000328,1.636093,-0.822917,0.036440,-0.335401,-0.382122,-0.841648,0.381590,0.261776,-0.206204,-0.284438,6.653814,-49.742130,7.346191,,,,,,,
