timestamp(unix),attitude_roll(radians),attitude_pitch(radians),attitude_yaw(radians),rotation_rate_x(radians/s),rotation_rate_y(radians/s),rotation_rate_z(radians/s),gravity_x(G),gravity_y(G),gravity_z(G),user_acc_x(G),user_acc_y(G),user_acc_z(G),magnetic_field_x(microteslas),magnetic_field_y(microteslas),magnetic_field_z(microteslas),latitude(degree),longitude(degree),altitude(meter),speed(m/s),course(degree),timestamp(unix),User Mark
1504282284.990641,-0.073545,0.382009,-1.489960,-0.012303,0.206297,-0.077040,-0.068182,-0.372786,-0.925409,0.007879,-0.064638,0.019632,-21.008936,-21.576788,-37.559235,,,,,,,
1504282285.000651,-0.071787,0.382515,-1.490936,0.062827,0.115124,-0.098097,-0.066542,-0.373254,-0.925340,0.010512,-0.060217,0.026551,-20.858789,-21.501562,-37.334412,,,,,,,
1504282285.010661,-0.070431,0.385762,-1.492176,0.116612,0.027305,-0.107457,-0.065202,-0.376265,-0.924215,0.011277,-0.056306,0.029012,-20.858789,-21.501562,-37.334412,,,,,,,
1504282285.020671,-0.070296,0.387150,-1.493216,0.134192,-0.041040,-0.105172,-0.065039,-0.377551,-0.923702,0.009024,-0.060635,0.027309,-20.485178,-21.124273,-37.636292,,,,,,,
1504282285.030680,-0.070701,0.388490,-1.494229,0.123124,-0.088904,-0.101904,-0.065378,-0.378792,-0.923170,0.005685,-0.063347,0.021162,-20.485178,-21.124273,-37.636292,,,,,,,
1504282285.040690,-0.071335,0.389629,-1.495224,0.101641,-0.103651,-0.096578,-0.065932,-0.379846,-0.922697,0.009398,-0.066367,0.020430,-20.709467,-21.275732,-37.410706,,,,,,,
1504282285.050700,-0.071734,0.392920,-1.496202,0.084503,-0.105664,-0.080595,-0.066211,-0.382888,-0.921419,0.008700,-0.068269,0.020754,-20.709467,-21.275732,-37.410706,,,,,,,
1504282285.060710,-0.072415,0.393753,-1.496851,0.079204,-0.088592,-0.060353,-0.066815,-0.383657,-0.921056,0.006481,-0.062770,0.020146,-21.008570,-21.502539,-37.184784,,,,,,,
1504282285.070719,-0.072830,0.394642,-1.497274,0.089059,-0.045003,-0.041200,-0.067172,-0.384477,-0.920687,0.006931,-0.055205,0.023425,-21.008570,-21.502539,-37.184784,,,,,,,
1504282285.080729,-0.072758,0.395660,-1.497497,0.103315,0.014534,-0.023134,-0.067078,-0.385418,-0.920301,0.006485,-0.052052,0.026136,-20.558008,-21.725515,-37.182007,,,,,,,
1504282285.090739,-0.072096,0.398511,-1.497666,0.103753,0.067805,-0.021093,-0.066389,-0.388046,-0.919246,0.002454,-0.045014,0.029018,-20.558008,-21.725515,-37.182007,,,,,,,
1504282285.100749,-0.071031,0.399407,-1.497874,0.078495,0.107447,-0.027611,-0.065385,-0.388872,-0.918968,0.004228,-0.043958,0.026222,-20.783228,-21.726233,-37.332550,,,,,,,
1504282285.110759,-0.069402,0.401519,-1.498363,0.039066,0.105645,-0.036217,-0.063831,-0.390817,-0.918253,0.010028,-0.044577,0.018396,-20.783228,-21.726233,-37.332550,,,,,,,
1504282285.120768,-0.067666,0.403257,-1.499084,0.002667,0.082506,-0.044780,-0.062191,-0.392417,-0.917683,0.016201,-0.047525,0.014805,-20.932505,-21.877356,-37.106781,,,,,,,
1504282285.130778,-0.066183,0.404794,-1.499868,-0.011369,0.055982,-0.050097,-0.060790,-0.393830,-0.917171,0.016189,-0.047454,0.017360,-20.932505,-21.877356,-37.106781,,,,,,,
1504282285.140788,-0.064981,0.406273,-1.500661,-0.011378,0.048526,-0.056490,-0.059649,-0.395188,-0.916661,0.012454,-0.044478,0.024556,-20.782587,-22.026083,-37.405273,,,,,,,
1504282285.150767,-0.063664,0.407822,-1.501515,0.004688,0.052654,-0.058606,-0.058403,-0.396611,-0.916127,0.015145,-0.042003,0.027562,-20.782587,-22.026083,-37.405273,,,,,,,
1504282285.160777,-0.062472,0.409450,-1.502217,0.028028,0.043917,-0.042541,-0.057271,-0.398105,-0.915550,0.015294,-0.037503,0.028404,-20.707850,-21.875891,-37.331238,,,,,,,
1504282285.170787,-0.061789,0.411066,-1.502544,0.049186,0.034125,-0.019005,-0.056606,-0.399587,-0.914946,0.006969,-0.031428,0.027373,-20.707850,-21.875891,-37.331238,,,,,,,
1504282285.180796,-0.061374,0.412719,-1.502645,0.067239,0.028636,-0.008290,-0.056186,-0.401101,-0.914309,0.004077,-0.027091,0.025546,-20.558344,-21.725073,-37.406982,,,,,,,
1504282285.190806,-0.060860,0.414435,-1.502756,0.082230,0.033839,-0.008274,-0.055674,-0.402673,-0.913649,0.006250,-0.024299,0.024581,-20.558344,-21.725073,-37.406982,,,,,,,
1504282285.200816,-0.060168,0.416227,-1.502955,0.082249,0.032774,-0.011475,-0.054998,-0.404312,-0.912966,0.010717,-0.025604,0.025835,-20.332468,-22.024206,-37.329193,,,,,,,
1504282285.210826,-0.059621,0.417932,-1.503123,0.072652,0.030722,-0.013624,-0.054457,-0.405871,-0.912306,0.006453,-0.027539,0.022368,-20.332468,-22.024206,-37.329193,,,,,,,
1504282285.220835,-0.059059,0.419503,-1.503323,0.058728,0.024438,-0.010435,-0.053906,-0.407307,-0.911699,0.008710,-0.030392,0.017763,-20.332773,-21.949057,-37.404724,,,,,,,
1504282285.230845,-0.058585,0.421108,-1.503474,0.060650,0.003097,0.000278,-0.053437,-0.408772,-0.911071,0.012726,-0.032787,0.019225,-20.332773,-21.949057,-37.404724,,,,,,,
1504282285.240855,-0.058556,0.422842,-1.503401,0.075292,-0.024749,0.017430,-0.053368,-0.410354,-0.910363,0.009850,-0.031678,0.024789,-20.482019,-22.249731,-37.402832,,,,,,,
1504282285.250865,-0.058958,0.424770,-1.503145,0.093114,-0.057944,0.030328,-0.053687,-0.412111,-0.909551,0.009360,-0.031462,0.028935,-20.482019,-22.249731,-37.402832,,,,,,,
1504282285.260874,-0.059591,0.426833,-1.502863,0.102524,-0.083598,0.030388,-0.054212,-0.413990,-0.908666,0.011869,-0.032681,0.029546,-20.556864,-22.175512,-37.178619,,,,,,,
1504282285.270884,-0.060442,0.428917,-1.502659,0.100380,-0.095289,0.016528,-0.054933,-0.415886,-0.907756,0.008714,-0.034294,0.027172,-20.556864,-22.175512,-37.178619,,,,,,,
1504282285.280894,-0.061236,0.430811,-1.502674,0.089821,-0.096247,-0.004838,-0.055606,-0.417608,-0.906924,0.008288,-0.031626,0.023685,-20.333033,-21.799200,-37.330872,,,,,,,
1504282285.290904,-0.062050,0.432577,-1.502777,0.081325,-0.096173,-0.010190,-0.056298,-0.419212,-0.906141,0.005975,-0.031396,0.021803,-20.333033,-21.799200,-37.330872,,,,,,,
1504282285.300914,-0.063029,0.434272,-1.502798,0.073844,-0.097181,-0.006999,-0.057140,-0.420750,-0.905375,0.000530,-0.032863,0.022288,-20.407816,-21.799841,-37.181061,,,,,,,
1504282285.310923,-0.064204,0.435906,-1.502695,0.076932,-0.106807,0.002630,-0.058160,-0.422232,-0.904620,-0.002173,-0.029871,0.023547,-20.407816,-21.799841,-37.181061,,,,,,,
1504282285.320933,-0.065558,0.437491,-1.502376,0.087436,-0.115441,0.024012,-0.059341,-0.423668,-0.903872,-0.001236,-0.023857,0.024004,-20.632242,-22.025854,-37.179932,,,,,,,
1504282285.330943,-0.067128,0.439174,-1.501824,0.091625,-0.116558,0.040032,-0.060712,-0.425192,-0.903064,-0.004519,-0.024377,0.027286,-20.632242,-22.025854,-37.179932,,,,,,,
1504282285.340953,-0.068650,0.440728,-1.501240,0.084232,-0.109036,0.038939,-0.062041,-0.426598,-0.902311,-0.004777,-0.023338,0.023603,-20.706263,-22.326498,-37.027832,,,,,,,
1504282285.350962,-0.069951,0.442048,-1.500760,0.066344,-0.085435,0.028193,-0.063176,-0.427792,-0.901667,-0.005397,-0.022358,0.017451,-20.706263,-22.326498,-37.027832,,,,,,,
1504282285.360972,-0.070904,0.443177,-1.500399,0.042351,-0.030870,0.007776,-0.064000,-0.428812,-0.901124,-0.013713,-0.024207,0.017304,-20.631723,-22.101309,-36.954346,,,,,,,
1504282285.370951,-0.071408,0.444114,-1.500185,0.017180,0.013043,-0.007287,-0.064426,-0.429658,-0.900690,-0.018414,-0.026626,0.018000,-20.631723,-22.101309,-36.954346,,,,,,,
1504282285.380961,-0.071648,0.444659,-1.500059,-0.009227,0.039911,-0.015918,-0.064625,-0.430150,-0.900441,-0.023662,-0.023860,0.012700,-20.781412,-22.401388,-37.252472,,,,,,,
1504282285.390971,-0.071853,0.444924,-1.499980,-0.014467,0.046357,-0.023408,-0.064802,-0.430389,-0.900314,-0.028597,-0.018768,0.005920,-20.781412,-22.401388,-37.252472,,,,,,,
1504282285.400981,-0.072007,0.445226,-1.499987,0.003686,0.043019,-0.030840,-0.064931,-0.430662,-0.900175,-0.027873,-0.013079,0.006284,-20.705896,-22.476492,-37.026703,,,,,,,
1504282285.410990,-0.072344,0.445824,-1.499964,0.035533,0.023575,-0.028613,-0.065216,-0.431201,-0.899896,-0.027817,-0.009030,0.014306,-20.705896,-22.476492,-37.026703,,,,,,,
1504282285.421000,-0.072960,0.446575,-1.499925,0.048120,-0.005297,-0.030673,-0.065746,-0.431879,-0.899532,-0.028660,-0.008932,0.012508,-20.781687,-22.027273,-36.805298,,,,,,,
1504282285.431010,-0.073793,0.447336,-1.500004,0.052122,-0.043683,-0.038068,-0.066472,-0.432565,-0.899149,-0.024349,-0.010367,0.003473,-20.781687,-22.027273,-36.805298,,,,,,,
1504282285.441020,-0.074722,0.448055,-1.500333,0.050968,-0.068159,-0.059373,-0.067284,-0.433213,-0.898776,-0.021477,-0.010543,-0.001843,-20.780817,-22.327429,-36.728027,,,,,,,
1504282285.451030,-0.075687,0.448848,-1.500917,0.055228,-0.084153,-0.082819,-0.068125,-0.433928,-0.898368,-0.020712,-0.012041,-0.000985,-20.780817,-22.327429,-36.728027,,,,,,,
1504282285.461039,-0.076670,0.449735,-1.501741,0.056338,-0.092665,-0.104148,-0.068979,-0.434727,-0.897917,-0.021109,-0.012936,0.002882,-20.705973,-22.401648,-36.952301,,,,,,,
1504282285.471049,-0.077482,0.450703,-1.502734,0.056484,-0.080934,-0.113774,-0.069675,-0.435599,-0.897440,-0.018994,-0.014856,0.005457,-20.705973,-22.401648,-36.952301,,,,,,,
1504282285.481059,-0.078114,0.451677,-1.503665,0.041797,-0.047784,-0.109586,-0.070209,-0.436475,-0.896973,-0.023068,-0.020221,0.008210,-20.630472,-22.551458,-36.875977,,,,,,,
1504282285.491069,-0.078495,0.452526,-1.504520,0.018686,-0.002840,-0.108636,-0.070522,-0.437238,-0.896577,-0.030843,-0.024813,0.009888,-20.630472,-22.551458,-36.875977,,,,,,,
1504282285.501078,-0.078262,0.453128,-1.505494,-0.006465,0.048524,-0.116240,-0.070293,-0.437780,-0.896330,-0.028325,-0.027781,0.005705,-20.704874,-22.702093,-36.725037,,,,,,,
1504282285.511088,-0.077419,0.453578,-1.506622,-0.025196,0.098774,-0.129168,-0.069521,-0.438185,-0.896193,-0.028074,-0.031130,0.003859,-20.704874,-22.702093,-36.725037,,,,,,,
1504282285.521098,-0.076448,0.454520,-1.507849,0.039931,0.095054,-0.141855,-0.068620,-0.439031,-0.895847,-0.028396,-0.030039,0.019032,-20.704767,-22.702246,-36.650024,,,,,,,
1504282285.531108,-0.075184,0.454820,-1.509783,0.001179,0.022961,-0.188761,-0.067477,-0.439301,-0.895802,-0.031446,-0.049209,0.099461,-20.704767,-22.702246,-36.650024,,,,,,,
1504282285.541117,-0.074602,0.454635,-1.512241,-0.047388,-0.070372,-0.227107,-0.066962,-0.439134,-0.895923,-0.012643,-0.033568,0.018802,-20.554529,-22.926123,-36.872955,,,,,,,
1504282285.551127,-0.074501,0.454224,-1.514996,-0.062618,-0.120308,-0.248393,-0.066885,-0.438765,-0.896109,-0.014948,-0.033510,0.020529,-20.554529,-22.926123,-36.872955,,,,,,,
1504282285.561137,-0.074784,0.454598,-1.517776,-0.061642,-0.136296,-0.253700,-0.067126,-0.439101,-0.895926,-0.006254,-0.028596,0.031394,-20.479654,-22.925634,-36.947784,,,,,,,
1504282285.571135,-0.074901,0.454247,-1.520484,-0.050967,-0.123616,-0.234490,-0.067243,-0.438786,-0.896072,-0.006137,-0.028911,0.031540,-20.479654,-22.925634,-36.947784,,,,,,,
1504282285.581114,-0.074760,0.453975,-1.522971,-0.041127,-0.083222,-0.217466,-0.067125,-0.438541,-0.896201,-0.001021,-0.012967,0.005606,-20.704874,-22.926352,-37.098358,,,,,,,
1504282285.591124,-0.074333,0.453835,-1.525262,-0.024993,-0.050329,-0.199399,-0.066747,-0.438415,-0.896291,-0.017252,-0.015976,-0.005351,-20.704874,-22.926352,-37.098358,,,,,,,
1504282285.601132,-0.073600,0.453833,-1.527442,-0.014009,-0.008864,-0.196251,-0.066090,-0.438414,-0.896340,-0.019222,-0.003115,-0.011176,-20.554239,-23.001272,-36.797424,,,,,,,
1504282285.611142,-0.072904,0.453880,-1.529578,-0.000741,0.032613,-0.222984,-0.065464,-0.438456,-0.896365,-0.032116,-0.005850,-0.015790,-20.554239,-23.001272,-36.797424,,,,,,,
1504282285.621152,-0.071161,0.454159,-1.532469,0.012476,0.051739,-0.275298,-0.063893,-0.438707,-0.896356,-0.033687,-0.005598,-0.015799,-20.629877,-22.701757,-36.724854,,,,,,,
1504282285.631162,-0.069128,0.454626,-1.535983,0.030835,0.044188,-0.331825,-0.062057,-0.439126,-0.896280,-0.030732,-0.001136,-0.015952,-20.629877,-22.701757,-36.724854,,,,,,,
1504282285.641172,-0.067204,0.455429,-1.540026,0.063813,0.003471,-0.377594,-0.060308,-0.439847,-0.896045,-0.021418,-0.003832,-0.018689,-20.104456,-22.998953,-36.946320,,,,,,,
1504282285.651181,-0.066142,0.456594,-1.544216,0.104946,-0.071434,-0.401940,-0.059323,-0.440893,-0.895597,-0.016772,-0.005869,-0.017443,-20.104456,-22.998953,-36.946320,,,,,,,
1504282285.661191,-0.065512,0.458117,-1.548727,0.133141,-0.157964,-0.417750,-0.058715,-0.442260,-0.894963,-0.014497,-0.003678,-0.012843,-20.104090,-23.148947,-36.945190,,,,,,,
1504282285.671201,-0.065549,0.459826,-1.553501,0.144438,-0.231552,-0.447488,-0.058698,-0.443792,-0.894205,-0.010348,-0.007319,-0.011312,-20.104090,-23.148947,-36.945190,,,,,,,
1504282285.681211,-0.065822,0.461580,-1.558878,0.141200,-0.274086,-0.508260,-0.058891,-0.445363,-0.893411,-0.002968,-0.014979,-0.014075,-20.027399,-23.823614,-36.939941,,,,,,,
1504282285.691221,-0.065905,0.463472,-1.565046,0.131967,-0.273934,-0.581927,-0.058910,-0.447056,-0.892564,-0.005910,-0.018810,-0.016051,-20.027399,-23.823614,-36.939941,,,,,,,
1504282285.701231,-0.065389,0.465057,-1.571889,0.113200,-0.249221,-0.630036,-0.058403,-0.448474,-0.891886,-0.006798,-0.020856,-0.019338,-20.101938,-23.824545,-36.640106,,,,,,,
1504282285.711241,-0.064428,0.466479,-1.579080,0.097549,-0.220295,-0.654664,-0.057505,-0.449744,-0.891304,-0.008947,-0.024240,-0.016426,-20.101938,-23.824545,-36.640106,,,,,,,
1504282285.721251,-0.062988,0.467827,-1.586463,0.092622,-0.178680,-0.669690,-0.056182,-0.450948,-0.890780,-0.024964,-0.023539,-0.022504,-20.175699,-24.275030,-36.561920,,,,,,,
1504282285.731260,-0.061246,0.469223,-1.594046,0.094116,-0.144561,-0.700702,-0.054592,-0.452193,-0.890248,-0.039722,-0.018571,-0.028835,-20.175699,-24.275030,-36.561920,,,,,,,
1504282285.741270,-0.058891,0.470713,-1.602313,0.105397,-0.112612,-0.772254,-0.052456,-0.453522,-0.889700,-0.050038,-0.015976,-0.027429,-19.875025,-24.498846,-36.484467,,,,,,,
1504282285.751280,-0.055572,0.472307,-1.611605,0.113664,-0.069961,-0.864111,-0.049463,-0.454942,-0.889146,-0.057883,-0.014174,-0.032698,-19.875025,-24.498846,-36.484467,,,,,,,
1504282285.761290,-0.051554,0.474033,-1.621938,0.125829,-0.068908,-0.948416,-0.045849,-0.456479,-0.888552,-0.050831,-0.013813,-0.032834,-19.573374,-25.022940,-36.254761,,,,,,,
1504282285.771300,-0.047496,0.475818,-1.633037,0.130065,-0.109375,-1.007044,-0.042204,-0.458066,-0.887916,-0.047090,-0.014895,-0.023980,-19.573374,-25.022940,-36.254761,,,,,,,
1504282285.781308,-0.043687,0.477564,-1.644610,0.125561,-0.161514,-1.043252,-0.038787,-0.459617,-0.887270,-0.042939,-0.018288,-0.029204,-19.348673,-24.946783,-36.329773,,,,,,,
1504282285.791318,-0.040286,0.479280,-1.656523,0.128440,-0.219052,-1.070898,-0.035737,-0.461140,-0.886607,-0.027037,-0.017894,-0.035054,-19.348673,-24.946783,-36.329773,,,,,,,
1504282285.801297,-0.036929,0.481028,-1.668771,0.134948,-0.224402,-1.100764,-0.032731,-0.462691,-0.885915,-0.021300,-0.013261,-0.035517,-18.972162,-25.545095,-36.324341,,,,,,,
1504282285.811307,-0.033061,0.482921,-1.681406,0.155673,-0.188308,-1.133881,-0.029275,-0.464368,-0.885158,-0.013297,-0.008502,-0.040501,-18.972162,-25.545095,-36.324341,,,,,,,
1504282285.821317,-0.028444,0.485043,-1.694488,0.184055,-0.132025,-1.172358,-0.025160,-0.466246,-0.884297,-0.014528,-0.001115,-0.030269,-18.970926,-25.995245,-36.245972,,,,,,,
1504282285.831327,-0.023054,0.487380,-1.707907,0.210264,-0.072541,-1.198035,-0.020368,-0.468313,-0.883328,-0.031604,0.002447,-0.020755,-18.970926,-25.995245,-36.245972,,,,,,,
1504282285.841336,-0.017308,0.489910,-1.721480,0.235998,-0.059960,-1.203349,-0.015271,-0.470546,-0.882243,-0.023852,0.007152,-0.014073,-18.368662,-26.668295,-35.864410,,,,,,,
1504282285.851346,-0.011627,0.492555,-1.734957,0.248641,-0.068608,-1.185166,-0.010245,-0.472879,-0.881068,-0.005075,0.000451,-0.003713,-18.368662,-26.668295,-35.864410,,,,,,,
1504282285.861356,-0.006532,0.495232,-1.747842,0.261779,-0.115677,-1.113545,-0.005747,-0.475235,-0.879840,0.014796,-0.010864,0.003512,-17.917459,-27.191122,-35.934387,,,,,,,
1504282285.871367,-0.002454,0.498009,-1.759707,0.274730,-0.173421,-1.021624,-0.002156,-0.477677,-0.878533,0.044118,0.010560,0.009636,-17.917459,-27.191122,-35.934387,,,,,,,
1504282285.881376,0.000551,0.500865,-1.770883,0.287661,-0.258829,-0.970215,0.000483,-0.480185,-0.877167,0.025701,0.012137,0.033387,-17.765162,-28.015753,-35.777832,,,,,,,
1504282285.891386,0.002501,0.503792,-1.782075,0.296444,-0.373965,-0.990278,0.002190,-0.482750,-0.875756,0.029243,0.015983,0.043114,-17.765162,-28.015753,-35.777832,,,,,,,
1504282285.901396,0.003666,0.506812,-1.794130,0.309770,-0.496528,-1.077566,0.003205,-0.485392,-0.874291,0.034774,0.023799,0.045113,-17.313562,-28.613882,-35.697205,,,,,,,
1504282285.911406,0.004371,0.510210,-1.807267,0.359618,-0.589553,-1.166977,0.003814,-0.488361,-0.872633,0.060517,0.032352,0.036513,-17.313562,-28.613882,-35.697205,,,,,,,
1504282285.921414,0.004697,0.514403,-1.821188,0.449926,-0.671226,-1.221114,0.004089,-0.492015,-0.870577,0.067749,0.037334,0.040926,-17.086725,-28.989065,-35.093811,,,,,,,
1504282285.931424,0.004403,0.519651,-1.835492,0.556079,-0.751998,-1.242136,0.003821,-0.496577,-0.867984,0.065316,0.032420,0.063632,-17.086725,-28.989065,-35.093811,,,,,,,
1504282285.941434,0.002978,0.525867,-1.849265,0.643438,-0.855093,-1.167084,0.002576,-0.501963,-0.864885,0.054370,0.025965,0.092867,-17.309534,-29.590979,-34.639862,,,,,,,
1504282285.951444,0.000186,0.532242,-1.861767,0.611407,-0.913567,-1.042151,0.000160,-0.507467,-0.861671,0.053108,0.023427,0.123817,-17.309534,-29.590979,-34.639862,,,,,,,
1504282285.961454,-0.001964,0.534608,-1.872519,0.111061,-0.690072,-0.907852,-0.001690,-0.509504,-0.860467,0.018917,0.001325,0.126870,-17.080927,-30.716024,-34.105865,,,,,,,
1504282285.971463,-0.000659,0.531999,-1.883307,-0.393498,-0.290556,-0.930779,-0.000568,-0.507257,-0.861795,-0.033764,0.005594,0.007318,-17.080927,-30.716024,-34.105865,,,,,,,
1504282285.981473,0.005496,0.525784,-1.893864,-0.657673,0.182583,-0.900049,0.004753,-0.501892,-0.864917,-0.022850,-0.054474,-0.084729,-16.930140,-30.940649,-33.953796,,,,,,,
1504282285.991483,0.014265,0.519175,-1.903856,-0.633533,0.422107,-0.864137,0.012385,-0.496164,-0.868141,-0.030482,-0.060202,-0.081505,-16.930140,-30.940649,-33.953796,,,,,,,
1504282286.001493,0.023144,0.513696,-1.913376,-0.495189,0.400682,-0.826501,0.020155,-0.491400,-0.870701,-0.038527,-0.099177,0.070439,-16.781382,-30.714071,-34.405121,,,,,,,
1504282286.011503,0.030492,0.509477,-1.922252,-0.376027,0.260049,-0.770541,0.026615,-0.487720,-0.872594,-0.017887,-0.037685,0.125722,-16.781382,-30.714071,-34.405121,,,,,,,
1504282286.021482,0.035507,0.506293,-1.930418,-0.251134,0.041570,-0.704828,0.031046,-0.484939,-0.873997,-0.031656,0.020614,0.114155,-16.032068,-30.485556,-34.479980,,,,,,,
1504282286.031492,0.037568,0.505316,-1.937535,-0.023085,-0.193785,-0.598345,0.032865,-0.484084,-0.874404,-0.026975,0.026625,0.087463,-16.032068,-30.485556,-34.479980,,,,,,,
1504282286.041502,0.037411,0.505785,-1.944106,0.084186,-0.373714,-0.574359,0.032720,-0.484495,-0.874182,-0.028188,0.018155,0.128546,-15.507105,-30.557898,-34.628113,,,,,,,
1504282286.051512,0.036551,0.505986,-1.951350,0.021026,-0.451962,-0.657588,0.031964,-0.484670,-0.874113,-0.024549,0.003667,0.176664,-15.507105,-30.557898,-34.628113,,,,,,,
1504282286.061522,0.036289,0.504751,-1.960007,-0.141365,-0.433428,-0.798799,0.031757,-0.483590,-0.874718,0.035305,-0.012489,0.087212,-15.507517,-30.482595,-34.778687,,,,,,,
1504282286.071531,0.037435,0.501660,-1.970178,-0.316137,-0.356194,-0.930529,0.032815,-0.480882,-0.876171,0.089332,-0.050978,-0.005146,-15.507517,-30.482595,-34.778687,,,,,,,
1504282286.081541,0.039259,0.497546,-1.981115,-0.384125,-0.349190,-0.978692,0.034490,-0.477270,-0.878079,0.099818,-0.054590,-0.055942,-15.357141,-30.631918,-34.777191,,,,,,,
1504282286.091551,0.040163,0.493651,-1.991739,-0.331749,-0.441312,-0.931473,0.035358,-0.473844,-0.879899,0.073742,-0.046130,-0.039977,-15.357141,-30.631918,-34.777191,,,,,,,
1504282286.101561,0.039709,0.491059,-2.001689,-0.179203,-0.540666,-0.871259,0.035007,-0.471560,-0.881139,0.070538,-0.051847,0.021154,-15.131723,-30.706213,-34.626038,,,,,,,
1504282286.111571,0.038079,0.490478,-2.011067,0.028961,-0.623428,-0.812045,0.033582,-0.471048,-0.881468,0.085665,-0.051474,0.068312,-15.131723,-30.706213,-34.626038,,,,,,,
1504282286.121579,0.035470,0.491957,-2.019472,0.215901,-0.661310,-0.703847,0.031257,-0.472352,-0.880856,0.087609,-0.000854,0.097515,-15.056726,-30.705877,-34.625854,,,,,,,
1504282286.131589,0.033100,0.494943,-2.026413,0.347597,-0.517616,-0.566177,0.029122,-0.474981,-0.879514,0.021476,0.059591,0.102460,-15.056726,-30.705877,-34.625854,,,,,,,
1504282286.141599,0.032467,0.498822,-2.031872,0.416238,-0.255119,-0.430961,0.028506,-0.478392,-0.877684,-0.088168,0.068067,0.078093,-14.905268,-31.155645,-34.397125,,,,,,,
1504282286.151609,0.034097,0.503002,-2.035966,0.426562,0.035593,-0.323648,0.029868,-0.482058,-0.875630,-0.142264,0.052111,0.058720,-14.905268,-31.155645,-34.397125,,,,,,,
1504282286.161618,0.037838,0.506571,-2.039857,0.340590,0.215339,-0.340125,0.033078,-0.485182,-0.873788,-0.192181,0.012205,0.040780,-14.903757,-31.531393,-34.019287,,,,,,,
1504282286.171628,0.042217,0.508946,-2.044655,0.230886,0.181174,-0.433119,0.036855,-0.487257,-0.872481,-0.160314,-0.008410,0.011549,-14.903757,-31.531393,-34.019287,,,,,,,
1504282286.181638,0.045270,0.510630,-2.050345,0.178337,-0.030373,-0.504353,0.039482,-0.488727,-0.871543,-0.036201,-0.008099,-0.070764,-14.903116,-31.831244,-34.092072,,,,,,,
1504282286.191648,0.046250,0.511805,-2.056504,0.126528,-0.259016,-0.537129,0.040309,-0.489751,-0.870930,0.041936,-0.021677,-0.086391,-14.903116,-31.831244,-34.092072,,,,,,,
1504282286.201658,0.045396,0.512076,-2.062697,0.024885,-0.426546,-0.534875,0.039560,-0.489988,-0.870831,0.044287,-0.018755,-0.060840,-14.602182,-32.204899,-34.088501,,,,,,,
1504282286.211668,0.042932,0.510914,-2.068409,-0.150363,-0.562617,-0.484771,0.037438,-0.488975,-0.871494,0.043007,-0.009347,-0.053265,-14.602182,-32.204899,-34.088501,,,,,,,
1504282286.221678,0.038516,0.507168,-2.072892,-0.398306,-0.685354,-0.384648,0.033659,-0.485704,-0.873475,0.048708,-0.047575,-0.054946,-14.600672,-32.580647,-33.710693,,,,,,,
1504282286.231688,0.031834,0.503219,-2.076105,-0.368450,-0.878600,-0.262572,0.027883,-0.482248,-0.875591,0.018809,-0.081869,-0.123951,-14.600672,-32.580647,-33.710693,,,,,,,
1504282286.241667,0.022474,0.500459,-2.078846,-0.230628,-1.120563,-0.259772,0.019716,-0.479828,-0.877141,0.019438,-0.066482,-0.075389,-14.826914,-32.131504,-33.789612,,,,,,,
1504282286.251677,0.011499,0.499110,-2.082245,-0.099446,-1.294215,-0.313676,0.010096,-0.478645,-0.877951,0.089940,-0.070183,0.076315,-14.826914,-32.131504,-33.789612,,,,,,,
1504282286.261685,0.000603,0.498571,-2.086806,-0.041351,-1.312678,-0.439496,0.000530,-0.478171,-0.878267,0.160420,-0.096368,0.093538,-15.201273,-32.208790,-33.489990,,,,,,,
1504282286.271695,-0.009968,0.498069,-2.093153,-0.061297,-1.370956,-0.598471,-0.008756,-0.477730,-0.878463,0.142271,-0.051384,0.081619,-15.201273,-32.208790,-33.489990,,,,,,,
1504282286.281705,-0.019699,0.496785,-2.101307,-0.173390,-1.342166,-0.753489,-0.017316,-0.476602,-0.878949,0.107770,-0.033530,0.077954,-16.025843,-32.287800,-33.341461,,,,,,,
1504282286.291715,-0.027252,0.494083,-2.111138,-0.329299,-1.175575,-0.887478,-0.023990,-0.474225,-0.880077,0.086261,0.012448,0.049633,-16.025843,-32.287800,-33.341461,,,,,,,
1504282286.301725,-0.032659,0.490073,-2.121629,-0.457749,-0.976289,-0.912602,-0.028810,-0.470690,-0.881828,0.044450,0.052783,0.038597,-16.400248,-32.664036,-33.564545,,,,,,,
1504282286.311734,-0.035856,0.485250,-2.131804,-0.525426,-0.737087,-0.865108,-0.031710,-0.466430,-0.883990,-0.013777,0.029082,0.043963,-16.400248,-32.664036,-33.564545,,,,,,,
1504282286.321744,-0.037385,0.480190,-2.141183,-0.535990,-0.545267,-0.792882,-0.033150,-0.461948,-0.886287,-0.037575,-0.019253,0.066128,-16.550882,-32.140614,-33.118866,,,,,,,
1504282286.331754,-0.037692,0.475303,-2.149780,-0.504081,-0.385754,-0.731198,-0.033506,-0.457608,-0.888522,-0.018847,0.002637,0.082385,-16.550882,-32.140614,-33.118866,,,,,,,
1504282286.341764,-0.036616,0.470917,-2.158024,-0.451660,-0.225296,-0.716447,-0.032623,-0.453703,-0.890555,0.014221,0.046248,0.072379,-16.326105,-32.139301,-33.268311,,,,,,,
1504282286.351774,-0.033605,0.467092,-2.166580,-0.396596,-0.039222,-0.762578,-0.029999,-0.450292,-0.892377,0.040620,0.044469,0.070859,-16.326105,-32.139301,-33.268311,,,,,,,
1504282286.361784,-0.028749,0.463535,-2.175830,-0.374865,0.101329,-0.830034,-0.025712,-0.447113,-0.894108,0.060472,0.009994,0.067967,-15.875544,-32.362278,-33.265503,,,,,,,
1504282286.371794,-0.022578,0.460303,-2.185565,-0.328949,0.212883,-0.872847,-0.020226,-0.444220,-0.895690,0.068536,-0.003840,0.046370,-15.875544,-32.362278,-33.265503,,,,,,,
1504282286.381804,-0.016069,0.457689,-2.195158,-0.256437,0.223981,-0.847124,-0.014414,-0.441876,-0.896960,0.060572,0.011899,0.009738,-15.651682,-32.135517,-33.641632,,,,,,,
1504282286.391813,-0.010035,0.455920,-2.204400,-0.153599,0.163425,-0.812683,-0.009010,-0.440289,-0.897811,0.046363,0.034817,0.001144,-15.651682,-32.135517,-33.641632,,,,,,,
1504282286.401823,-0.004818,0.455207,-2.213247,-0.051615,0.124197,-0.786819,-0.004327,-0.439648,-0.898160,0.023492,0.041440,-0.021289,-15.126413,-32.283009,-33.714233,,,,,,,
1504282286.411833,0.000047,0.455449,-2.221911,0.046318,0.102068,-0.777004,0.000042,-0.439866,-0.898064,0.040271,0.070100,-0.045387,-15.126413,-32.283009,-33.714233,,,,,,,
1504282286.421843,0.005010,0.456380,-2.230812,0.107309,0.104795,-0.807857,0.004497,-0.440701,-0.897643,0.042774,0.093350,-0.045518,-14.676416,-32.280994,-33.713135,,,,,,,
1504282286.431851,0.011093,0.455484,-2.240758,0.098788,0.074029,-0.863331,0.009962,-0.439897,-0.897993,0.040972,0.085816,-0.038881,-14.676416,-32.280994,-33.713135,,,,,,,
1504282286.441861,0.015449,0.455798,-2.250730,0.019123,-0.038229,-0.900630,0.013871,-0.440179,-0.897803,0.048537,0.070291,-0.041009,-13.850306,-32.727283,-33.707703,,,,,,,
1504282286.451871,0.017973,0.454924,-2.260702,-0.104158,-0.238622,-0.890883,0.016144,-0.439394,-0.898149,0.060242,0.045855,-0.070540,-13.850306,-32.727283,-33.707703,,,,,,,
1504282286.461850,0.018209,0.452638,-2.270232,-0.250081,-0.447389,-0.847005,0.016375,-0.437339,-0.899147,0.060026,0.025078,-0.099296,-13.475641,-32.725147,-33.931763,,,,,,,
1504282286.471860,0.016371,0.448930,-2.279216,-0.387121,-0.612539,-0.803187,0.014748,-0.434002,-0.900791,0.048607,0.027706,-0.108563,-13.475641,-32.725147,-33.931763,,,,,,,
1504282286.481870,0.013445,0.444064,-2.287842,-0.498672,-0.672382,-0.780860,0.012140,-0.429613,-0.902932,0.039099,0.038744,-0.102958,-13.474894,-33.025150,-33.929504,,,,,,,
1504282286.491880,0.010659,0.438538,-2.296490,-0.553758,-0.630358,-0.792771,0.009650,-0.424616,-0.905322,0.032312,0.039729,-0.076245,-13.474894,-33.025150,-33.929504,,,,,,,
1504282286.501889,0.009124,0.432888,-2.305490,-0.552459,-0.491801,-0.831439,0.008282,-0.419494,-0.907720,0.014194,0.030746,-0.026316,-13.401087,-32.499958,-33.858276,,,,,,,
1504282286.511899,0.009732,0.427520,-2.315007,-0.517421,-0.278915,-0.884057,0.008856,-0.414616,-0.909954,-0.009725,0.021732,0.034206,-13.401087,-32.499958,-33.858276,,,,,,,
1504282286.521909,0.012965,0.422570,-2.325201,-0.473528,-0.034120,-0.949524,0.011824,-0.410105,-0.911961,-0.041991,0.014994,0.090794,-13.325785,-32.799030,-34.155823,,,,,,,
1504282286.531919,0.018891,0.418064,-2.336086,-0.421115,0.207409,-1.017105,0.017263,-0.405992,-0.913714,-0.068960,0.012498,0.121386,-13.325785,-32.799030,-34.155823,,,,,,,
1504282286.541929,0.027430,0.414179,-2.347789,-0.342062,0.434883,-1.100627,0.025108,-0.402439,-0.915103,-0.096977,0.010578,0.120913,-12.801325,-32.721210,-34.380096,,,,,,,
1504282286.551939,0.038030,0.411170,-2.360536,-0.234780,0.580090,-1.199965,0.034852,-0.399682,-0.915991,-0.128113,0.012613,0.115637,-12.801325,-32.721210,-34.380096,,,,,,,
1504282286.561949,0.049814,0.409117,-2.374251,-0.120786,0.639978,-1.284198,0.045684,-0.397800,-0.916334,-0.140868,0.014056,0.103346,-12.052942,-32.341938,-34.831116,,,,,,,
1504282286.571939,0.061788,0.407976,-2.388650,-0.015110,0.613587,-1.336271,0.056681,-0.396752,-0.916174,-0.150446,-0.006873,0.083441,-12.052942,-32.341938,-34.831116,,,,,,,
1504282286.581948,0.073313,0.407390,-2.403596,0.044286,0.539621,-1.384071,0.067252,-0.396215,-0.915692,-0.171226,-0.024363,0.073162,-10.627588,-32.709797,-35.199799,,,,,,,
1504282286.591958,0.084216,0.406524,-2.419200,0.004579,0.464368,-1.458725,0.077261,-0.395419,-0.915245,-0.192968,-0.023816,0.063378,-10.627588,-32.709797,-35.199799,,,,,,,
1504282286.601968,0.094857,0.404129,-2.435710,-0.145966,0.396453,-1.554974,0.087086,-0.393218,-0.915312,-0.205646,-0.024507,0.045195,-9.802774,-32.631092,-35.198303,,,,,,,
1504282286.611978,0.105018,0.399520,-2.453031,-0.349904,0.314056,-1.656585,0.096570,-0.388976,-0.916172,-0.207379,-0.041245,-0.004802,-9.802774,-32.631092,-35.198303,,,,,,,
1504282286.621988,0.114092,0.392828,-2.470965,-0.523465,0.177037,-1.732430,0.105173,-0.382802,-0.917824,-0.207636,-0.061213,-0.069358,-8.527033,-32.925358,-35.192932,,,,,,,
1504282286.631997,0.121483,0.384809,-2.489142,-0.616416,0.003085,-1.771778,0.112322,-0.375382,-0.920039,-0.194262,-0.064880,-0.107716,-8.527033,-32.925358,-35.192932,,,,,,,
1504282286.642007,0.126812,0.376159,-2.507466,-0.652015,-0.199053,-1.803505,0.117630,-0.367351,-0.922614,-0.182968,-0.056492,-0.107644,-7.478052,-32.695042,-35.492004,,,,,,,
1504282286.652017,0.130092,0.367243,-2.526147,-0.661916,-0.400319,-1.852268,0.121075,-0.359044,-0.925434,-0.175396,-0.040462,-0.087048,-7.478052,-32.695042,-35.492004,,,,,,,
1504282286.662027,0.131530,0.358194,-2.545399,-0.664110,-0.582450,-1.918130,0.122827,-0.350583,-0.928442,-0.155176,-0.032718,-0.072748,-6.654306,-32.689686,-36.315002,,,,,,,
1504282286.672006,0.131547,0.348728,-2.565420,-0.703200,-0.722695,-2.006545,0.123272,-0.341703,-0.931688,-0.134152,-0.044177,-0.052900,-6.654306,-32.689686,-36.315002,,,,,,,
1504282286.682016,0.130922,0.338589,-2.586104,-0.768117,-0.749786,-2.083462,0.123137,-0.332156,-0.935152,-0.116209,-0.043729,-0.037840,-5.830133,-32.311115,-36.240753,,,,,,,
1504282286.692025,0.130933,0.327799,-2.607275,-0.817321,-0.661952,-2.131735,0.123608,-0.321960,-0.938649,-0.095394,-0.037308,-0.035777,-5.830133,-32.311115,-36.240753,,,,,,,
1504282286.702035,0.132214,0.316990,-2.628476,-0.794696,-0.499104,-2.128781,0.125261,-0.311708,-0.941885,-0.086763,-0.041014,-0.028543,-5.157511,-31.632193,-36.694214,,,,,,,
1504282286.712045,0.135024,0.307225,-2.649289,-0.666495,-0.312668,-2.077652,0.128311,-0.302414,-0.944501,-0.077163,-0.043975,-0.025287,-5.157511,-31.632193,-36.694214,,,,,,,
1504282286.722055,0.138369,0.299536,-2.669464,-0.465267,-0.191851,-2.013470,0.131786,-0.295077,-0.946341,-0.073345,-0.034085,0.000357,-4.409021,-31.253073,-37.070160,,,,,,,
1504282286.732064,0.142897,0.293799,-2.689516,-0.241898,-0.117013,-1.969451,0.136309,-0.289591,-0.947395,-0.063707,0.007578,0.023292,-4.409021,-31.253073,-37.070160,,,,,,,
1504282286.742074,0.147941,0.290083,-2.709831,-0.037653,-0.070725,-1.987325,0.141244,-0.286031,-0.947753,-0.049386,0.050665,0.023574,-3.359293,-31.322760,-37.367004,,,,,,,
1504282286.752084,0.153414,0.287845,-2.731110,0.121855,-0.057032,-2.072465,0.146526,-0.283887,-0.947596,-0.040371,0.071286,0.025706,-3.359293,-31.322760,-37.367004,,,,,,,
1504282286.762094,0.159223,0.286573,-2.753582,0.235460,-0.055732,-2.172606,0.152085,-0.282667,-0.947085,-0.019486,0.056532,0.012469,-2.083933,-31.467031,-37.362732,,,,,,,
1504282286.772103,0.165277,0.285888,-2.777131,0.314782,-0.062690,-2.257849,0.157848,-0.282010,-0.946337,-0.005352,0.035184,0.001910,-2.083933,-31.467031,-37.362732,,,,,,,
1504282286.782113,0.171429,0.285527,-2.801441,0.366217,-0.071578,-2.316451,0.163684,-0.281664,-0.945449,0.004392,0.050935,-0.007310,-1.183817,-31.463125,-37.285492,,,,,,,
1504282286.792123,0.177479,0.285235,-2.826162,0.386407,-0.098356,-2.343054,0.169415,-0.281383,-0.944522,0.015521,0.078701,-0.018124,-1.183817,-31.463125,-37.285492,,,,,,,
1504282286.802133,0.183028,0.284846,-2.850779,0.381588,-0.152687,-2.319483,0.174674,-0.281009,-0.943675,0.030023,0.091770,-0.024053,0.016134,-31.532431,-37.432007,,,,,,,
1504282286.812143,0.187568,0.284235,-2.874784,0.357066,-0.245256,-2.257453,0.178988,-0.280423,-0.943041,0.044675,0.063656,-0.034712,0.016134,-31.532431,-37.432007,,,,,,,
1504282286.822152,0.190626,0.283329,-2.897969,0.317230,-0.377140,-2.182572,0.181920,-0.279553,-0.942738,0.042553,0.017712,-0.040447,1.067175,-31.902868,-37.351593,,,,,,,
1504282286.832162,0.192119,0.281881,-2.920284,0.247590,-0.503445,-2.113088,0.183404,-0.278163,-0.942862,0.043494,0.006297,-0.034876,1.067175,-31.902868,-37.351593,,,,,,,
1504282286.842172,0.192342,0.279679,-2.941905,0.157038,-0.594383,-2.072524,0.183731,-0.276047,-0.943420,0.041229,0.019608,-0.019791,2.192282,-31.897955,-37.273804,,,,,,,
1504282286.852182,0.191902,0.276490,-2.963399,0.055405,-0.644668,-2.098229,0.183483,-0.272981,-0.944360,0.032765,0.043076,-0.002372,2.192282,-31.897955,-37.273804,,,,,,,
1504282286.862191,0.190435,0.273730,-2.984958,0.175723,-0.789547,-2.066810,0.182238,-0.270324,-0.945364,0.030607,0.071243,0.025046,2.642355,-31.970785,-37.347137,,,,,,,
1504282286.872201,0.186025,0.273824,-3.005049,0.418042,-1.038988,-1.849268,0.178063,-0.270415,-0.946134,0.054176,0.113112,0.027036,2.642355,-31.970785,-37.347137,,,,,,,
1504282286.882211,0.181245,0.274984,-3.024224,0.452523,-0.943457,-1.763984,0.173482,-0.271532,-0.946665,0.143458,0.241716,-0.123632,3.241446,-31.518377,-37.199036,,,,,,,
1504282286.892190,0.176968,0.276062,-3.043630,0.419711,-0.959089,-1.841934,0.169380,-0.272568,-0.947110,0.174462,-0.186385,-0.142688,3.241446,-31.518377,-37.199036,,,,,,,
1504282286.902200,0.173716,0.276084,-3.063558,0.309823,-0.862218,-1.902070,0.166298,-0.272590,-0.947649,0.177543,-0.186364,-0.142149,3.542379,-31.892035,-37.195496,,,,,,,
1504282286.912210,0.169637,0.275039,-3.083836,0.198077,-0.995504,-1.958601,0.162480,-0.271584,-0.948600,0.165050,-0.244041,-0.083977,3.542379,-31.892035,-37.195496,,,,,,,
1504282286.922219,0.164517,0.271564,-3.103154,-0.148606,-1.047116,-1.841696,0.157774,-0.268239,-0.950345,0.120531,-0.149379,0.025281,3.767309,-31.816183,-37.120483,,,,,,,
1504282286.932229,0.159459,0.264303,-3.119415,-0.558303,-0.894810,-1.599307,0.153271,-0.261237,-0.953029,0.046162,-0.070276,0.094844,3.767309,-31.816183,-37.120483,,,,,,,
1504282286.942239,0.153306,0.255277,-3.133378,-0.707285,-1.015224,-1.442444,0.147758,-0.252513,-0.956245,0.031975,0.100521,0.222023,4.140982,-31.513739,-37.496796,,,,,,,
1504282286.952249,0.145680,0.244762,3.136929,-0.915164,-1.083913,-1.373302,0.140838,-0.242325,-0.959918,0.038895,0.090333,0.225696,4.140982,-31.513739,-37.496796,,,,,,,
1504282286.962259,0.138701,0.232264,3.124465,-1.097507,-0.950256,-1.394135,0.134545,-0.230181,-0.963802,0.054481,0.056811,0.074993,4.138006,-30.687551,-38.103027,,,,,,,
1504282286.972268,0.133563,0.219347,3.109903,-1.057678,-0.804321,-1.659039,0.129976,-0.217592,-0.967347,0.077010,-0.022719,0.093995,4.138006,-30.687551,-38.103027,,,,,,,
1504282286.982278,0.131454,0.207751,3.091813,-0.814804,-0.527852,-1.994270,0.128257,-0.206259,-0.970055,0.041787,-0.092065,0.168358,3.984701,-29.637320,-38.561310,,,,,,,
1504282286.992288,0.134265,0.198299,3.070645,-0.627930,0.019626,-2.219066,0.131239,-0.197002,-0.971579,0.004381,-0.154942,0.220984,3.984701,-29.637320,-38.561310,,,,,,,
1504282287.002298,0.140556,0.191159,3.049178,-0.329034,0.226997,-2.131387,0.137542,-0.189997,-0.972103,-0.025741,-0.328604,0.286281,4.731939,-28.808050,-39.015625,,,,,,,
1504282287.012307,0.146278,0.187501,3.029776,-0.011479,0.194294,-1.890613,0.143202,-0.186404,-0.971981,-0.006072,-0.290860,0.358318,4.731939,-28.808050,-39.015625,,,,,,,
1504282287.022317,0.149575,0.187175,3.011105,0.304954,-0.089695,-1.827655,0.146415,-0.186084,-0.971563,0.005379,-0.127698,0.261663,6.005468,-28.351858,-39.240875,,,,,,,
1504282287.032327,0.150093,0.188108,2.990566,0.413499,-0.394059,-2.044680,0.146892,-0.187000,-0.971315,0.064336,-0.191890,0.173128,6.005468,-28.351858,-39.240875,,,,,,,
1504282287.042337,0.147658,0.188427,2.966932,0.346831,-0.797031,-2.372845,0.144518,-0.187314,-0.971611,0.044172,-0.215899,0.021782,7.054220,-27.896994,-39.316650,,,,,,,
1504282287.052346,0.141456,0.185991,2.939973,0.051924,-1.222576,-2.754735,0.138553,-0.184920,-0.972938,0.050137,-0.218293,0.023108,7.054220,-27.896994,-39.316650,,,,,,,
1504282287.062356,0.131922,0.179167,2.909812,-0.372874,-1.606571,-3.125183,0.129434,-0.178210,-0.975442,0.098868,-0.231992,0.030633,7.205191,-28.196615,-39.164032,,,,,,,
1504282287.072366,0.119260,0.168520,2.875264,-0.741037,-1.940792,-3.647191,0.117292,-0.167723,-0.978832,0.104113,-0.350587,0.250301,7.205191,-28.196615,-39.164032,,,,,,,
1504282287.082376,0.104903,0.153898,2.835584,-1.103499,-2.100293,-4.176969,0.103473,-0.153292,-0.982749,0.117932,-0.365019,0.254218,7.352026,-27.294744,-39.770447,,,,,,,
1504282287.092385,0.089826,0.136567,2.791328,-1.337466,-2.158627,-4.637322,0.088870,-0.136142,-0.986695,0.140363,-0.426297,0.375932,7.352026,-27.294744,-39.770447,,,,,,,
1504282287.102395,0.074270,0.119124,2.742222,-1.325599,-2.175274,-5.118670,0.073676,-0.118843,-0.990176,0.155557,-0.443596,0.379412,7.571264,-25.716330,-40.981720,,,,,,,
1504282287.112374,0.059442,0.103312,2.687564,-1.217420,-2.057327,-5.655593,0.059090,-0.103128,-0.992911,0.172584,-0.537832,0.350974,7.571264,-25.716330,-40.981720,,,,,,,
1504282287.122384,0.046758,0.089726,2.628153,-0.999677,-1.766724,-6.063475,0.046553,-0.089605,-0.994889,0.133134,-0.563272,0.387436,8.015234,-23.762808,-41.745270,,,,,,,
1504282287.132394,0.036782,0.080341,2.565503,-0.557223,-1.439755,-6.330135,0.036655,-0.080255,-0.996100,0.069394,-0.556372,0.426520,8.015234,-23.762808,-41.745270,,,,,,,
1504282287.142404,0.030167,0.076755,2.500562,-0.000705,-1.081830,-6.527271,0.030074,-0.076680,-0.996602,0.013383,-0.576427,0.427739,8.833899,-21.732443,-42.583435,,,,,,,
1504282287.152414,0.026827,0.079288,2.433065,0.601489,-0.790279,-6.790390,0.026739,-0.079205,-0.996500,0.025507,-0.609958,0.461084,8.833899,-21.732443,-42.583435,,,,,,,
1504282287.162423,0.026665,0.087298,2.362005,1.102372,-0.550013,-7.145391,0.026560,-0.087187,-0.995838,0.067190,-0.597535,0.496433,9.729345,-20.227346,-43.117523,,,,,,,
1504282287.172433,0.028563,0.098779,2.286354,1.427146,-0.524492,-7.617732,0.028420,-0.098619,-0.994719,0.109916,-0.563231,0.513778,9.729345,-20.227346,-43.117523,,,,,,,
1504282287.182443,0.029999,0.111897,2.205729,1.570336,-0.782005,-8.074945,0.029807,-0.111663,-0.993299,0.113992,-0.528809,0.464170,11.377447,-19.469931,-43.119080,,,,,,,
1504282287.192453,0.028443,0.125484,2.122543,1.603432,-1.273363,-8.224526,0.028215,-0.125155,-0.991736,0.060988,-0.485151,0.329047,11.377447,-19.469931,-43.119080,,,,,,,
1504282287.202462,0.022890,0.138985,2.040064,1.545510,-1.758944,-8.085008,0.022667,-0.138538,-0.990098,-0.044441,-0.525143,0.188279,12.650137,-18.638891,-43.272125,,,,,,,
1504282287.212472,0.013957,0.152579,1.960344,1.488621,-2.133904,-7.761022,0.013794,-0.151987,-0.988286,-0.154480,-0.621252,0.087697,12.650137,-18.638891,-43.272125,,,,,,,
1504282287.222482,0.003628,0.166920,1.884633,1.500681,-2.238857,-7.352001,0.003578,-0.166146,-0.986095,-0.258552,-0.681465,0.038081,13.247152,-17.585745,-43.503540,,,,,,,
1504282287.232492,-0.005154,0.181313,1.812380,1.394802,-2.076337,-7.040789,-0.005069,-0.180321,-0.983595,-0.355755,-0.699959,0.003477,13.247152,-17.585745,-43.503540,,,,,,,
1504282287.242501,-0.009862,0.193950,1.742244,1.130428,-1.663034,-6.851978,-0.009677,-0.192736,-0.981203,-0.413296,-0.648466,0.002230,12.869604,-16.836538,-43.960052,,,,,,,
1504282287.252511,-0.008961,0.203769,1.673363,0.841547,-1.162068,-6.743421,-0.008775,-0.202362,-0.979271,-0.436644,-0.513748,-0.034385,12.869604,-16.836538,-43.960052,,,,,,,
1504282287.262521,-0.004611,0.210620,1.605011,0.559239,-0.910499,-6.640815,-0.004510,-0.209066,-0.977891,-0.435264,-0.498820,-0.049605,13.017080,-16.234518,-44.639252,,,,,,,
1504282287.272531,0.002305,0.214217,1.538574,0.285138,-0.649492,-6.457090,0.002253,-0.212583,-0.977140,-0.460566,-0.534640,-0.102770,13.017080,-16.234518,-44.639252,,,,,,,
1504282287.282540,0.010500,0.215957,1.473243,0.204241,-0.557298,-6.347450,0.010255,-0.214283,-0.976718,-0.464082,-0.489086,-0.183637,13.238379,-14.808340,-44.724365,,,,,,,
1504282287.292550,0.018655,0.217165,1.409847,0.220192,-0.552343,-6.114738,0.018216,-0.215462,-0.976342,-0.503903,-0.521888,-0.161887,13.238379,-14.808340,-44.724365,,,,,,,
1504282287.302560,0.025454,0.218534,1.349565,0.293537,-0.654511,-5.795277,0.024845,-0.216799,-0.975900,-0.545384,-0.527876,-0.128607,13.458975,-13.231726,-45.035645,,,,,,,
1504282287.312570,0.030384,0.221966,1.292502,0.587575,-0.777676,-5.476464,0.029634,-0.220148,-0.975016,-0.491502,-0.436560,-0.073049,13.458975,-13.231726,-45.035645,,,,,,,
1504282287.322549,0.034666,0.229924,1.237393,1.112501,-0.809876,-5.312186,0.033747,-0.227904,-0.973099,-0.428614,-0.342485,-0.002548,13.455770,-12.180975,-45.418549,,,,,,,
1504282287.332559,0.039332,0.243212,1.181469,1.658928,-0.860081,-5.423227,0.038164,-0.240822,-0.969819,-0.395662,-0.403145,0.142533,13.455770,-12.180975,-45.418549,,,,,,,
1504282287.342569,0.044995,0.260842,1.122346,2.110265,-0.915693,-5.730826,0.043458,-0.257894,-0.965195,-0.311189,-0.436106,0.297944,13.679708,-11.804815,-45.495789,,,,,,,
1504282287.352578,0.053165,0.281982,1.058268,2.506337,-0.896116,-6.175281,0.051041,-0.278260,-0.959149,-0.318772,-0.415741,0.291897,13.679708,-11.804815,-45.495789,,,,,,,
1504282287.362588,0.063825,0.305486,0.987730,2.804784,-1.020527,-6.743470,0.060829,-0.300756,-0.951759,-0.283897,-0.441797,0.303734,13.455206,-12.180227,-45.793549,,,,,,,
1504282287.372598,0.075920,0.330010,0.910335,3.001795,-1.272002,-7.285993,0.071755,-0.324052,-0.943314,-0.281655,-0.501479,0.285553,13.455206,-12.180227,-45.793549,,,,,,,
1504282287.382608,0.088684,0.354871,0.827571,3.147161,-1.587193,-7.629956,0.083049,-0.347470,-0.934006,-0.291683,-0.528461,0.196778,13.457800,-13.080679,-45.561768,,,,,,,
1504282287.392617,0.100508,0.379235,0.742439,3.169862,-1.967771,-7.656998,0.093210,-0.370210,-0.924260,-0.323343,-0.605559,0.111195,13.457800,-13.080679,-45.561768,,,,,,,
1504282287.402627,0.110218,0.402812,0.658989,3.147509,-2.278038,-7.308517,0.101192,-0.392007,-0.914380,-0.386806,-0.673393,0.006970,13.084951,-13.982229,-45.630920,,,,,,,
1504282287.412637,0.117818,0.425316,0.580898,2.996175,-2.391476,-6.668138,0.107073,-0.412608,-0.904594,-0.451235,-0.691564,-0.098061,13.084951,-13.982229,-45.630920,,,,,,,
1504282287.422647,0.124956,0.445753,0.510444,2.732530,-2.187649,-5.890818,0.112453,-0.431137,-0.895251,-0.554729,-0.770325,-0.145795,12.637671,-15.109106,-45.698608,,,,,,,
1504282287.432656,0.133480,0.463565,0.447345,2.406767,-1.832916,-5.252634,0.119039,-0.447139,-0.886508,-0.672887,-0.829197,-0.137754,12.637671,-15.109106,-45.698608,,,,,,,
1504282287.442666,0.142798,0.477770,0.388673,2.029307,-1.718283,-4.902315,0.126377,-0.459800,-0.878984,-0.740238,-0.868264,-0.084547,11.590506,-16.238821,-45.692749,,,,,,,
1504282287.452676,0.150420,0.488065,0.333379,1.633146,-1.850644,-4.620974,0.132357,-0.468918,-0.873268,-0.745729,-0.795685,-0.090355,11.590506,-16.238821,-45.692749,,,,,,,
1504282287.462686,0.154642,0.494269,0.280982,1.210687,-2.123357,-4.425890,0.135592,-0.474388,-0.869811,-0.663791,-0.521843,-0.214006,11.143713,-17.291601,-45.310974,,,,,,,
1504282287.472696,0.154979,0.496392,0.230875,0.785068,-2.421568,-4.279868,0.135729,-0.476256,-0.868768,-0.584764,-0.313081,-0.307181,11.143713,-17.291601,-45.310974,,,,,,,
1504282287.482705,0.151152,0.494738,0.183891,0.362518,-2.675151,-4.035717,0.132522,-0.474801,-0.870059,-0.582122,-0.240958,-0.320524,10.468557,-17.369192,-45.537079,,,,,,,
1504282287.492715,0.142562,0.490199,0.141393,0.021467,-2.932732,-3.666533,0.125348,-0.470802,-0.873289,-0.619748,-0.159142,-0.299456,10.468557,-17.369192,-45.537079,,,,,,,
1504282287.502725,0.129053,0.484397,0.104577,-0.168087,-3.112837,-3.171269,0.113889,-0.465675,-0.877597,-0.676679,-0.074105,-0.249372,8.968054,-17.300482,-45.766357,,,,,,,
1504282287.512735,0.111798,0.479387,0.073874,-0.149671,-3.133810,-2.618286,0.098989,-0.461235,-0.881739,-0.732153,-0.023246,-0.171942,8.968054,-17.300482,-45.766357,,,,,,,
1504282287.522744,0.094211,0.476716,0.048937,-0.007593,-2.796645,-2.112685,0.083583,-0.458864,-0.884567,-0.767391,-0.037489,-0.058915,7.167013,-16.933416,-45.848602,,,,,,,
1504282287.532754,0.078963,0.476195,0.027705,0.149946,-2.397574,-1.827052,0.070106,-0.458400,-0.885976,-0.767127,-0.116200,0.082662,7.167013,-16.933416,-45.848602,,,,,,,
1504282287.542733,0.066249,0.477067,0.007752,0.224237,-2.130802,-1.748406,0.058809,-0.459176,-0.886397,-0.747514,-0.174155,0.127409,5.140554,-16.716330,-46.455322,,,,,,,
1504282287.552743,0.054540,0.478943,-0.012207,0.319579,-2.090017,-1.760054,0.048380,-0.460842,-0.886163,-0.698175,-0.033223,0.072320,5.140554,-16.716330,-46.455322,,,,,,,
1504282287.562753,0.042384,0.481950,-0.032158,0.408586,-2.148323,-1.729910,0.037545,-0.463508,-0.885297,-0.613686,0.223014,0.030713,3.716055,-16.872885,-46.382690,,,,,,,
1504282287.572745,0.028346,0.486501,-0.051371,0.528175,-2.360369,-1.659948,0.025053,-0.467536,-0.883619,-0.536101,0.431021,0.003965,3.716055,-16.872885,-46.382690,,,,,,,
1504282287.582753,0.012374,0.490913,-0.067946,0.441491,-2.334402,-1.351665,0.010912,-0.471432,-0.881835,-0.490374,0.507671,-0.019929,2.141714,-17.179815,-46.459320,,,,,,,
1504282287.592763,-0.004863,0.495328,-0.080152,0.431427,-2.286765,-0.968569,-0.004279,-0.475320,-0.879802,-0.523324,0.596689,-0.122792,2.141714,-17.179815,-46.459320,,,,,,,
1504282287.602773,-0.021430,0.498218,-0.085990,0.208529,-1.743186,-0.338048,-0.018823,-0.477861,-0.878234,-0.553458,0.532380,-0.105607,0.493307,-17.862082,-46.533356,,,,,,,
1504282287.612783,-0.033534,0.495357,-0.083208,-0.482597,-0.820830,0.447938,-0.029498,-0.475346,-0.879304,-0.594388,0.420903,-0.138961,0.493307,-17.862082,-46.533356,,,,,,,
1504282287.622792,-0.040298,0.484978,-0.073490,-1.134441,-0.069049,0.999465,-0.035641,-0.466189,-0.883967,-0.763797,0.044192,-0.296422,-1.231348,-17.870291,-46.312592,,,,,,,
1504282287.632802,-0.044387,0.470479,-0.061360,-1.460698,0.188157,1.152152,-0.039551,-0.453313,-0.890473,-0.912414,-0.141047,-0.691100,-1.231348,-17.870291,-46.312592,,,,,,,
1504282287.642812,-0.047530,0.455032,-0.050586,-1.491141,0.137448,0.970730,-0.042678,-0.439491,-0.897233,-0.719133,-0.074761,-0.784515,-1.534098,-17.045736,-46.769501,,,,,,,
1504282287.652822,-0.050317,0.440768,-0.043418,-1.357118,0.001376,0.621094,-0.045489,-0.426634,-0.903280,-0.456006,0.089415,-0.637690,-1.534098,-17.045736,-46.769501,,,,,,,
1504282287.662832,-0.051823,0.428016,-0.040575,-1.223103,-0.033411,0.221112,-0.047127,-0.415067,-0.908569,-0.237312,0.300565,-0.515701,-1.462214,-15.845236,-46.853333,,,,,,,
1504282287.672842,-0.051419,0.416799,-0.041782,-1.094034,0.009582,-0.132050,-0.046996,-0.404836,-0.913181,-0.146226,0.402379,-0.392117,-1.462214,-15.845236,-46.853333,,,,,,,
1504282287.682852,-0.048541,0.406776,-0.045206,-0.973267,0.202692,-0.291225,-0.044562,-0.395651,-0.917319,-0.114633,0.458685,-0.291833,-1.465723,-14.719336,-47.311798,,,,,,,
1504282287.692862,-0.043525,0.399069,-0.048974,-0.718740,0.398817,-0.310343,-0.040093,-0.388561,-0.920550,-0.146278,0.367732,-0.182523,-1.465723,-14.719336,-47.311798,,,,,,,
1504282287.702872,-0.036813,0.392974,-0.052373,-0.605360,0.586464,-0.280590,-0.033999,-0.382937,-0.923148,-0.167951,0.163119,-0.063668,-1.168406,-13.742682,-47.468384,,,,,,,
1504282287.712880,-0.028899,0.386905,-0.055449,-0.621672,0.692075,-0.263726,-0.026759,-0.377324,-0.925695,-0.209188,-0.065654,-0.012477,-1.168406,-13.742682,-47.468384,,,,,,,
1504282287.722890,-0.020974,0.380037,-0.058786,-0.729538,0.653578,-0.304406,-0.019476,-0.370955,-0.928447,-0.198588,-0.110536,-0.048299,-0.419992,-13.064459,-47.396576,,,,,,,
1504282287.732900,-0.013672,0.370701,-0.062701,-1.022317,0.563342,-0.361327,-0.012743,-0.362269,-0.931987,-0.130582,-0.051626,-0.085302,-0.419992,-13.064459,-47.396576,,,,,,,
1504282287.742910,-0.007543,0.358514,-0.067172,-1.279375,0.402483,-0.420196,-0.007063,-0.350883,-0.936393,-0.048433,0.056785,-0.202783,0.178244,-12.536169,-47.699066,,,,,,,
1504282287.752889,-0.003300,0.344679,-0.072229,-1.416247,0.193750,-0.479839,-0.003106,-0.337894,-0.941179,-0.052391,0.043796,-0.197996,0.178244,-12.536169,-47.699066,,,,,,,
1504282287.762899,-0.001257,0.331112,-0.077544,-1.298334,-0.018187,-0.501677,-0.001189,-0.325095,-0.945681,0.003569,0.051718,-0.079893,0.700140,-11.258947,-47.632324,,,,,,,
1504282287.772908,-0.001337,0.320241,-0.082787,-0.984221,-0.223251,-0.489029,-0.001269,-0.314796,-0.949159,0.027774,0.057426,0.095475,0.700140,-11.258947,-47.632324,,,,,,,
1504282287.782918,-0.003661,0.314201,-0.087751,-0.470725,-0.436366,-0.462146,-0.003482,-0.309056,-0.951037,0.019946,0.057408,0.363528,0.697058,-10.208349,-47.940216,,,,,,,
1504282287.792928,-0.007558,0.314314,-0.092220,0.148946,-0.573643,-0.423471,-0.007187,-0.309164,-0.950981,0.028992,-0.003366,0.554543,0.697058,-10.208349,-47.940216,,,,,,,
1504282287.802938,-0.012433,0.319494,-0.097048,0.654384,-0.639562,-0.470512,-0.011803,-0.314087,-0.949321,0.047524,-0.097092,0.643520,0.246420,-9.910513,-47.868591,,,,,,,
1504282287.812948,-0.018634,0.328811,-0.102781,0.982775,-0.875510,-0.589076,-0.017635,-0.322918,-0.946263,0.095058,-0.042027,0.588871,0.246420,-9.910513,-47.868591,,,,,,,
1504282287.822958,-0.024589,0.339514,-0.110360,1.076709,-0.851583,-0.773616,-0.023183,-0.333029,-0.942632,0.130696,0.025579,0.486699,-0.277521,-10.288031,-47.792053,,,,,,,
1504282287.832968,-0.028809,0.349107,-0.119444,0.870861,-0.661133,-0.910936,-0.027068,-0.342059,-0.939288,0.209837,0.088702,0.290942,-0.277521,-10.288031,-47.792053,,,,,,,
1504282287.842978,-0.030486,0.354890,-0.129831,0.396962,-0.478107,-1.010281,-0.028582,-0.347487,-0.937249,0.210115,0.002395,0.105325,-0.799768,-11.340551,-47.710480,,,,,,,
1504282287.852988,-0.028472,0.354727,-0.140689,-0.179200,-0.071643,-0.998120,-0.026696,-0.347334,-0.937361,0.128960,-0.081468,-0.159837,-0.799768,-11.340551,-47.710480,,,,,,,
1504282287.862997,-0.022461,0.350239,-0.151345,-0.558968,0.342796,-0.988835,-0.021096,-0.343122,-0.939054,0.013848,-0.061892,-0.370684,-1.099314,-11.566748,-47.784515,,,,,,,
1504282287.873007,-0.011725,0.342989,-0.162897,-0.784252,0.776353,-1.118078,-0.011042,-0.336303,-0.941689,-0.097616,-0.162430,-0.324516,-1.099314,-11.566748,-47.784515,,,,,,,
1504282287.883017,0.000158,0.333581,-0.175626,-1.028683,0.704938,-1.212307,0.000149,-0.327429,-0.944876,-0.019848,-0.148172,-0.220728,-0.874613,-11.266333,-47.486206,,,,,,,
1504282287.893027,0.010729,0.323209,-0.188315,-1.007152,0.605643,-1.196084,0.010174,-0.317611,-0.948166,0.119633,-0.085846,-0.200378,-0.874613,-11.266333,-47.486206,,,,,,,
1504282287.903035,0.020946,0.314658,-0.200700,-0.765686,0.647345,-1.196806,0.019916,-0.309491,-0.950694,0.077435,-0.216983,-0.396993,-0.202478,-10.437246,-48.015778,,,,,,,
1504282287.913045,0.032210,0.308531,-0.214361,-0.540213,0.718126,-1.367324,0.030684,-0.303660,-0.952286,0.088854,-0.357794,-0.196227,-0.202478,-10.437246,-48.015778,,,,,,,
1504282287.923055,0.044442,0.303147,-0.230881,-0.473521,0.723232,-1.682102,0.042401,-0.298525,-0.953460,0.103335,-0.352354,-0.008714,0.621496,-9.983679,-47.942108,,,,,,,
1504282287.933065,0.056738,0.296732,-0.250982,-0.577419,0.589118,-2.030018,0.054229,-0.292396,-0.954758,0.108841,-0.227257,0.037675,0.621496,-9.983679,-47.942108,,,,,,,
1504282287.943074,0.066417,0.288921,-0.273092,-0.673527,0.221363,-2.174703,0.063618,-0.284918,-0.956439,0.079525,-0.109766,0.054141,1.368322,-8.854864,-48.173706,,,,,,,
1504282287.953084,0.070401,0.280455,-0.294148,-0.706550,-0.343293,-2.020059,0.067594,-0.276792,-0.958549,0.024493,-0.078951,0.088264,1.368322,-8.854864,-48.173706,,,,,,,
1504282287.963094,0.067261,0.272558,-0.312598,-0.642354,-0.964264,-1.766945,0.064729,-0.269196,-0.960908,-0.015764,-0.085464,0.130448,1.592535,-8.404303,-47.951508,,,,,,,
1504282287.973073,0.057659,0.266578,-0.329434,-0.452451,-1.543532,-1.622563,0.055591,-0.263432,-0.963075,-0.046787,-0.030544,0.158219,1.592535,-8.404303,-47.951508,,,,,,,
1504282287.983083,0.044121,0.261489,-0.343811,-0.438560,-1.749627,-1.314763,0.042607,-0.258519,-0.965066,-0.108098,-0.014872,0.142190,1.140951,-7.955724,-48.256012,,,,,,,
1504282287.993093,0.029805,0.256598,-0.352943,-0.492018,-1.556880,-0.768686,0.028825,-0.253791,-0.966829,-0.224534,-0.070397,0.072695,1.140951,-7.955724,-48.256012,,,,,,,
1504282288.003103,0.017995,0.250679,-0.356644,-0.613136,-1.171736,-0.254020,0.017431,-0.248062,-0.968587,-0.345098,-0.015061,0.000509,-0.735697,-7.214437,-48.116272,,,,,,,
1504282288.013113,0.010112,0.243617,-0.356922,-0.735241,-0.665911,0.009592,0.009813,-0.241215,-0.970422,-0.512422,-0.001400,-0.048789,-0.735697,-7.214437,-48.116272,,,,,,,
1504282288.023123,0.006638,0.235369,-0.356564,-0.850387,-0.249388,0.018265,0.006455,-0.233201,-0.972407,-0.514603,0.061464,-0.044530,-1.561930,-6.768011,-48.196686,,,,,,,
1504282288.033133,0.005922,0.226427,-0.357497,-0.898213,-0.059150,-0.142264,0.005771,-0.224497,-0.974458,-0.302310,0.163676,-0.002395,-1.561930,-6.768011,-48.196686,,,,,,,
1504282288.043143,0.006274,0.218055,-0.360399,-0.802062,-0.028842,-0.333216,0.006125,-0.216331,-0.976301,-0.130271,0.200065,0.029585,-2.013880,-5.945180,-48.128998,,,,,,,
1504282288.053152,0.006764,0.211509,-0.364788,-0.593529,-0.046414,-0.457709,0.006613,-0.209936,-0.977693,-0.083609,0.141317,0.078950,-2.013880,-5.945180,-48.128998,,,,,,,
1504282288.063161,0.007534,0.207220,-0.369694,-0.371159,-0.007724,-0.485145,0.007373,-0.205740,-0.978579,-0.087817,0.081442,0.113421,-2.390696,-5.271719,-48.209961,,,,,,,
1504282288.073171,0.009635,0.205222,-0.374129,-0.136442,0.172481,-0.408203,0.009432,-0.203784,-0.978970,-0.125384,0.054523,0.103116,-2.390696,-5.271719,-48.209961,,,,,,,
1504282288.083181,0.014139,0.205794,-0.377093,0.127593,0.468508,-0.248157,0.013841,-0.204344,-0.978801,-0.171723,0.072737,0.073421,-2.166590,-4.821004,-48.062805,,,,,,,
1504282288.093190,0.020871,0.208591,-0.378307,0.322732,0.697953,-0.072102,0.020417,-0.207082,-0.978111,-0.215089,0.000783,0.041129,-2.166590,-4.821004,-48.062805,,,,,,,
1504282288.103200,0.028153,0.212404,-0.378250,0.408650,0.701396,0.034781,0.027517,-0.210810,-0.977140,-0.211782,-0.140783,0.009275,-1.717356,-4.743230,-48.437256,,,,,,,
1504282288.113210,0.032710,0.216682,-0.377761,0.422963,0.375174,0.065268,0.031939,-0.214991,-0.976094,-0.166201,-0.136251,-0.078167,-1.717356,-4.743230,-48.437256,,,,,,,
1504282288.123220,0.033096,0.220715,-0.376731,0.388243,-0.054050,0.135346,0.032288,-0.218928,-0.975207,-0.076950,-0.096014,-0.163847,-1.041346,-5.190053,-48.507233,,,,,,,
1504282288.133230,0.028776,0.224819,-0.375175,0.419730,-0.498699,0.169274,0.028048,-0.222930,-0.974431,-0.017489,-0.135606,-0.222133,-1.041346,-5.190053,-48.507233,,,,,,,
1504282288.143239,0.020828,0.229082,-0.373573,0.423563,-0.825860,0.160251,0.020282,-0.227084,-0.973664,0.090771,-0.178007,-0.182769,-1.115473,-5.490545,-48.430145,,,,,,,
1504282288.153250,0.011353,0.233594,-0.372585,0.456137,-0.933679,0.087915,0.011045,-0.231475,-0.972778,0.100009,-0.173615,-0.183655,-1.115473,-5.490545,-48.430145,,,,,,,
1504282288.163260,0.002131,0.238172,-0.371921,0.459925,-0.878268,0.059004,0.002071,-0.235927,-0.971769,0.131123,-0.148412,-0.136080,-1.939081,-6.094106,-48.502686,,,,,,,
1504282288.173270,-0.005446,0.243452,-0.372304,0.554608,-0.730788,-0.077720,-0.005285,-0.241055,-0.970497,0.129370,-0.116428,-0.070320,-1.939081,-6.094106,-48.502686,,,,,,,
1504282288.183279,-0.011068,0.249732,-0.374530,0.640860,-0.600238,-0.262461,-0.010725,-0.247144,-0.968919,0.146223,-0.074191,-0.028700,-2.988352,-6.249273,-48.279144,,,,,,,
1504282288.193259,-0.016384,0.256208,-0.378117,0.628344,-0.639436,-0.383030,-0.015849,-0.253414,-0.967228,0.299067,-0.101612,0.029469,-2.988352,-6.249273,-48.279144,,,,,,,
1504282288.203268,-0.022678,0.261517,-0.382016,0.483289,-0.762923,-0.376659,-0.021905,-0.258546,-0.965750,0.320931,-0.121214,0.040488,-3.437403,-6.626287,-48.277435,,,,,,,
1504282288.213278,-0.030061,0.265174,-0.385038,0.316922,-0.819208,-0.267973,-0.029006,-0.262077,-0.964611,0.224074,-0.084923,0.005657,-3.437403,-6.626287,-48.277435,,,,,,,
1504282288.223288,-0.037005,0.267474,-0.387023,0.196860,-0.703223,-0.182994,-0.035681,-0.264296,-0.963781,0.084173,-0.013033,-0.011316,-4.335779,-7.230474,-48.200134,,,,,,,
1504282288.233298,-0.041282,0.268991,-0.388911,0.130092,-0.388307,-0.196474,-0.039786,-0.265759,-0.963218,0.003882,0.036587,0.051673,-4.335779,-7.230474,-48.200134,,,,,,,
1504282288.243306,-0.041618,0.270349,-0.391504,0.129265,-0.009926,-0.280400,-0.040095,-0.267068,-0.962843,-0.001119,0.096322,0.136397,-5.084940,-7.608694,-48.274200,,,,,,,
1504282288.253316,-0.038249,0.271694,-0.395349,0.102464,0.300508,-0.399475,-0.036837,-0.268363,-0.962613,-0.001462,0.109840,0.206266,-5.084940,-7.608694,-48.274200,,,,,,,
1504282288.263326,-0.031913,0.272185,-0.399955,0.011113,0.582638,-0.456703,-0.030733,-0.268836,-0.962695,0.019869,0.140632,0.197864,-5.234720,-7.609670,-48.124573,,,,,,,
1504282288.273336,-0.022744,0.271959,-0.404586,-0.044425,0.856931,-0.433800,-0.021906,-0.268619,-0.962997,-0.020742,0.162968,0.138809,-5.234720,-7.609670,-48.124573,,,,,,,
1504282288.283345,-0.012043,0.271599,-0.408553,-0.038444,0.983611,-0.360363,-0.011601,-0.268272,-0.963273,-0.017528,0.107948,0.148485,-4.784235,-7.982046,-48.420624,,,,,,,
1504282288.293355,-0.002167,0.271475,-0.411503,-0.009138,0.843669,-0.256527,-0.002088,-0.268153,-0.963374,-0.007540,0.067225,0.178843,-4.784235,-7.982046,-48.420624,,,,,,,
1504282288.303365,0.003296,0.270876,-0.413562,-0.089120,0.359405,-0.184296,0.003176,-0.267575,-0.963532,-0.026430,-0.009417,0.159027,-3.509989,-7.676321,-48.419739,,,,,,,
1504282288.313375,0.003561,0.269044,-0.415336,-0.209415,-0.134054,-0.172960,0.003433,-0.265810,-0.964019,-0.026001,-0.085737,0.043457,-3.509989,-7.676321,-48.419739,,,,,,,
1504282288.323385,0.000910,0.266514,-0.417244,-0.255826,-0.344643,-0.189748,0.000878,-0.263370,-0.964694,-0.025124,-0.040585,-0.103573,-2.983912,-7.974416,-48.191193,,,,,,,
1504282288.333395,-0.000929,0.264385,-0.419535,-0.194568,-0.183131,-0.233690,-0.000896,-0.261316,-0.965253,-0.032200,-0.034842,-0.145328,-2.983912,-7.974416,-48.191193,,,,,,,
1504282288.343405,0.000047,0.263115,-0.422392,-0.105661,0.094314,-0.287395,0.000046,-0.260090,-0.965584,-0.045959,-0.049175,-0.087516,-3.434809,-7.750982,-48.418976,,,,,,,
1504282288.353415,0.003274,0.262530,-0.425245,-0.043475,0.282386,-0.260934,0.003162,-0.259524,-0.965731,-0.060886,-0.040479,-0.013715,-3.434809,-7.750982,-48.418976,,,,,,,
1504282288.363425,0.006575,0.262327,-0.427228,-0.015323,0.259677,-0.165846,0.006350,-0.259329,-0.965768,-0.071475,-0.026499,0.016641,-3.285639,-7.375463,-48.346405,,,,,,,
1504282288.373434,0.008112,0.262180,-0.427992,-0.011995,0.085829,-0.041715,0.007835,-0.259187,-0.965795,-0.060585,-0.046264,-0.003641,-3.285639,-7.375463,-48.346405,,,,,,,
1504282288.383444,0.007375,0.262353,-0.427300,0.030575,-0.103285,0.104926,0.007123,-0.259354,-0.965756,-0.034482,-0.082535,-0.030200,-2.984476,-7.749410,-48.192871,,,,,,,
1504282288.393454,0.005066,0.263093,-0.425402,0.081725,-0.187983,0.195893,0.004892,-0.260068,-0.965578,-0.038171,-0.134219,-0.027373,-2.984476,-7.749410,-48.192871,,,,,,,
1504282288.403433,0.002695,0.263956,-0.423563,0.086074,-0.194385,0.169227,0.002602,-0.260901,-0.965362,-0.067345,-0.152887,-0.026291,-2.834925,-7.748144,-48.492523,,,,,,,
1504282288.413442,0.000268,0.265242,-0.421997,0.145859,-0.204444,0.145866,0.000258,-0.262142,-0.965029,-0.057646,-0.095127,-0.051832,-2.834925,-7.748144,-48.492523,,,,,,,
1504282288.423452,-0.001986,0.267176,-0.420432,0.206929,-0.166595,0.155511,-0.001916,-0.264009,-0.964518,-0.022925,-0.047102,-0.064412,-3.510416,-7.601018,-48.570282,,,,,,,
1504282288.433461,-0.004550,0.272065,-0.418186,0.227371,-0.113534,0.208819,-0.004383,-0.268721,-0.963208,-0.007687,-0.034547,-0.024951,-3.510416,-7.601018,-48.570282,,,,,,,
1504282288.443471,-0.005894,0.275214,-0.415415,0.358894,-0.029450,0.285751,-0.005672,-0.271753,-0.962350,0.003231,-0.056173,-0.009528,-3.510035,-7.751028,-48.569153,,,,,,,
1504282288.453481,-0.005819,0.280423,-0.411970,0.575586,0.147735,0.334915,-0.005592,-0.276762,-0.960922,0.008567,-0.107301,0.011215,-3.510035,-7.751028,-48.569153,,,,,,,
1504282288.463491,-0.003900,0.287420,-0.408932,0.729882,0.318102,0.262298,-0.003740,-0.283479,-0.958971,-0.022749,-0.154631,0.071199,-3.884348,-7.977865,-48.493408,,,,,,,
1504282288.473500,-0.002510,0.299527,-0.406549,0.732419,0.418388,0.132963,-0.002398,-0.295068,-0.955473,-0.068372,-0.135367,0.050139,-3.884348,-7.977865,-48.493408,,,,,,,
1504282288.483510,0.001377,0.305930,-0.405975,0.598221,0.383371,0.029254,0.001313,-0.301180,-0.953566,-0.071335,-0.072996,-0.034852,-3.432138,-8.726294,-48.261688,,,,,,,
1504282288.493520,0.004330,0.310160,-0.406298,0.358549,0.253286,-0.043515,0.004123,-0.305211,-0.952276,-0.052692,-0.046535,-0.090937,-3.432138,-8.726294,-48.261688,,,,,,,
1504282288.503531,0.006164,0.312271,-0.406914,0.169922,0.138704,-0.057516,0.005866,-0.307220,-0.951620,-0.041724,-0.046891,-0.112085,-3.281305,-9.100470,-48.333466,,,,,,,
1504282288.513541,0.007496,0.313032,-0.407313,0.051431,0.150304,-0.026787,0.007132,-0.307945,-0.951378,-0.060522,-0.061684,-0.062081,-2.979944,-9.549414,-48.179352,,,,,,,
1504282288.523550,0.003856,0.320146,-0.405337,-0.006107,0.307391,0.005918,0.003660,-0.314705,-0.949182,-0.068525,-0.069908,0.033609,-2.979944,-9.549414,-48.179352,,,,,,,
1504282288.533560,0.008375,0.320053,-0.405631,-0.011884,0.487577,-0.044578,0.007949,-0.314617,-0.949185,-0.077239,-0.066105,0.144162,-2.755518,-9.323400,-48.180481,,,,,,,
1504282288.543570,0.014539,0.319289,-0.406494,-0.107711,0.618415,-0.088738,0.013804,-0.313891,-0.949359,-0.073114,-0.008680,0.222171,-2.755518,-9.323400,-48.180481,,,,,,,
1504282288.553580,0.021178,0.317069,-0.407119,-0.259184,0.646263,-0.050623,0.020121,-0.311783,-0.949940,-0.029291,0.045807,0.201832,-2.005640,-9.319891,-48.253662,,,,,,,
1504282288.563588,0.027860,0.313441,-0.406959,-0.396894,0.684614,0.025923,0.026499,-0.308334,-0.950909,-0.017146,0.075790,0.117703,-2.005640,-9.319891,-48.253662,,,,,,,
1504282288.573574,0.034865,0.308625,-0.405677,-0.509936,0.761086,0.137670,0.033211,-0.303749,-0.952173,-0.007362,0.083626,0.058573,-1.481882,-8.867376,-48.330719,,,,,,,
1504282288.583584,0.042344,0.303046,-0.403133,-0.583439,0.844693,0.248405,0.040402,-0.298429,-0.953576,0.015399,0.117948,0.049768,-1.481882,-8.867376,-48.330719,,,,,,,
1504282288.593594,0.050785,0.297067,-0.399422,-0.620142,0.995144,0.352650,0.048540,-0.292716,-0.954966,0.025847,0.167304,0.073146,-0.583063,-8.488028,-48.481354,,,,,,,
1504282288.603603,0.060767,0.291141,-0.394626,-0.611648,1.182521,0.447333,0.058174,-0.287046,-0.956149,0.042702,0.202329,0.096774,-0.583063,-8.488028,-48.481354,,,,,,,
1504282288.613613,0.071833,0.284449,-0.388230,-0.725819,1.277074,0.600674,0.068887,-0.280628,-0.957341,0.039618,0.209812,0.121144,0.689489,-7.731542,-48.858826,,,,,,,
1504282288.623592,0.080269,0.277894,-0.381362,-0.710344,0.945543,0.603420,0.077107,-0.274331,-0.958539,0.039623,0.223459,0.067914,0.689489,-7.731542,-48.858826,,,,,,,
1504282288.633602,0.084857,0.270715,-0.374727,-0.789092,0.547696,0.566626,0.081669,-0.267421,-0.960113,-0.000416,0.174953,0.048888,1.739019,-7.277715,-48.409607,,,,,,,
1504282288.643612,0.087352,0.263182,-0.369343,-0.777036,0.348505,0.397282,0.084237,-0.260154,-0.961886,0.089118,0.103645,0.083239,1.739019,-7.277715,-48.409607,,,,,,,
1504282288.653622,0.088903,0.257154,-0.365672,-0.564169,0.215796,0.289009,0.085867,-0.254329,-0.963298,0.089289,0.093837,0.024333,1.961126,-6.301122,-48.716339,,,,,,,
1504282288.663632,0.088878,0.254483,-0.362495,-0.204961,0.032761,0.280348,0.085902,-0.251745,-0.963974,0.081807,-0.000346,0.095443,1.961126,-6.301122,-48.716339,,,,,,,
1504282288.673641,0.087670,0.254905,-0.359667,0.075966,-0.065449,0.272469,0.084728,-0.252154,-0.963971,0.033710,-0.040067,0.110791,2.036428,-6.151678,-48.267303,,,,,,,
1504282288.683651,0.086520,0.256993,-0.357600,0.220539,-0.049505,0.190501,0.083575,-0.254173,-0.963541,-0.054736,-0.033623,-0.002401,2.036428,-6.151678,-48.267303,,,,,,,
1504282288.693661,0.086655,0.259732,-0.356987,0.272328,0.064241,0.043089,0.083644,-0.256822,-0.962832,-0.084376,0.019029,-0.111051,2.261648,-6.375219,-48.490082,,,,,,,
1504282288.703671,0.088536,0.261774,-0.357937,0.181273,0.190890,-0.108863,0.085408,-0.258795,-0.962149,-0.032689,0.065542,-0.135782,2.261648,-6.375219,-48.490082,,,,,,,
1504282288.713680,0.091579,0.261987,-0.360142,-0.012805,0.255495,-0.240604,0.088331,-0.259000,-0.961830,0.008395,0.071988,-0.102349,2.337332,-6.600042,-48.413177,,,,,,,
1504282288.723690,0.095149,0.259662,-0.363195,-0.272388,0.288637,-0.338246,0.091820,-0.256754,-0.962105,0.036903,0.070399,-0.091560,2.337332,-6.600042,-48.413177,,,,,,,
1504282288.733700,0.099809,0.254758,-0.366848,-0.506861,0.403606,-0.418910,0.096427,-0.252012,-0.962908,0.067849,0.039396,-0.050413,2.486944,-6.449361,-48.413940,,,,,,,
1504282288.743710,0.106197,0.247690,-0.370772,-0.723814,0.601502,-0.456994,0.102763,-0.245165,-0.964020,0.067540,0.020678,0.019882,2.486944,-6.449361,-48.413940,,,,,,,
1504282288.753719,0.115377,0.238467,-0.373629,-0.933038,0.930240,-0.337320,0.111863,-0.236213,-0.965241,0.023864,0.023719,0.107071,2.859945,-5.921773,-48.866974,,,,,,,
1504282288.763729,0.127234,0.227691,-0.374129,-1.096736,1.275551,-0.120462,0.123616,-0.225729,-0.966315,-0.061787,-0.033792,0.212852,2.859945,-5.921773,-48.866974,,,,,,,
1504282288.773739,0.140111,0.216029,-0.371355,-1.224787,1.333825,0.190894,0.136407,-0.214353,-0.967185,-0.105081,-0.040133,0.274466,4.208700,-5.241308,-48.568695,,,,,,,
1504282288.783749,0.149105,0.203158,-0.365778,-1.401286,0.863018,0.383551,0.145498,-0.201764,-0.968567,-0.101995,-0.033008,0.282089,4.208700,-5.241308,-48.568695,,,,,,,
1504282288.793758,0.152505,0.187408,-0.359409,-1.744802,0.331985,0.380690,0.149255,-0.186313,-0.971087,-0.091165,-0.043225,0.144641,5.179739,-3.661916,-48.578094,,,,,,,
1504282288.803768,0.152288,0.168503,-0.352143,-2.068623,0.030901,0.434030,0.149552,-0.167706,-0.974427,-0.013092,-0.049823,-0.005889,5.179739,-3.661916,-48.578094,,,,,,,
1504282288.813778,0.148249,0.145465,-0.343883,-2.485804,-0.354633,0.459605,0.146147,-0.144953,-0.978586,0.075014,0.006159,-0.057395,5.550543,-1.860677,-48.365692,,,,,,,
1504282288.823788,0.141813,0.121613,-0.335544,-2.438782,-0.606511,0.468670,0.140295,-0.121314,-0.982650,0.022730,0.019736,-0.116212,5.550543,-1.860677,-48.365692,,,,,,,
1504282288.833798,0.135067,0.099282,-0.327896,-2.259299,-0.586661,0.452935,0.133994,-0.099119,-0.986013,-0.000022,-0.013948,-0.109111,5.095053,0.237620,-48.532593,,,,,,,
1504282288.843777,0.128011,0.081697,-0.320031,-1.684452,-0.673573,0.574700,0.127236,-0.081606,-0.988510,-0.049706,-0.063444,-0.082749,5.095053,0.237620,-48.532593,,,,,,,
1504282288.853787,0.122725,0.071049,-0.312746,-0.958921,-0.396114,0.589345,0.122108,-0.070989,-0.989975,-0.064918,-0.061213,-0.164505,4.791510,1.960230,-48.021240,,,,,,,
1504282288.863796,0.120366,0.067719,-0.306365,-0.233346,-0.125030,0.584787,0.119800,-0.067667,-0.990489,-0.039218,-0.175802,-0.292042,4.791510,1.960230,-48.021240,,,,,,,
1504282288.873806,0.121136,0.069016,-0.301411,0.144150,0.185256,0.480288,0.120552,-0.068962,-0.990309,-0.052041,-0.161782,-0.288195,4.640982,2.034998,-48.247192,,,,,,,
1504282288.883816,0.123285,0.071591,-0.297779,0.217567,0.226322,0.372536,0.122658,-0.071530,-0.989868,-0.016610,-0.097446,-0.318390,4.640982,2.034998,-48.247192,,,,,,,
1504282288.893826,0.124575,0.073112,-0.294640,0.079282,0.112431,0.320194,0.123921,-0.073046,-0.989600,-0.026585,-0.074460,-0.230600,5.316626,1.738184,-48.318298,,,,,,,
1504282288.903835,0.124052,0.073742,-0.291593,0.021336,-0.075681,0.299077,0.123398,-0.073676,-0.989619,-0.053879,-0.103830,-0.084509,5.316626,1.738184,-48.318298,,,,,,,
1504282288.913845,0.123021,0.081228,-0.288961,0.016697,-0.150180,0.258626,0.122307,-0.081139,-0.989170,-0.003288,-0.066185,0.083454,5.091894,1.811579,-48.019379,,,,,,,
1504282288.923855,0.121503,0.081475,-0.286451,-0.004413,-0.116980,0.266003,0.120802,-0.081384,-0.989335,0.007570,-0.072806,0.145905,5.091894,1.811579,-48.019379,,,,,,,
1504282288.933865,0.120471,0.079808,-0.281964,-0.313461,-0.082670,0.461809,0.119798,-0.079723,-0.989592,-0.018037,-0.022740,0.093352,4.866781,1.810709,-48.094940,,,,,,,
1504282288.943874,0.118251,0.074798,-0.275341,-0.657847,-0.215340,0.630096,0.117646,-0.074728,-0.990240,0.047180,-0.036326,0.020941,4.866781,1.810709,-48.094940,,,,,,,
1504282288.953884,0.116175,0.065876,-0.267786,-1.099684,-0.094489,0.634454,0.115662,-0.065829,-0.991105,0.169921,-0.031232,-0.005981,4.790609,2.185679,-48.247955,,,,,,,
1504282288.963894,0.114769,0.052741,-0.260991,-1.443907,-0.142639,0.477034,0.114358,-0.052717,-0.992040,0.059501,-0.125186,0.019430,4.790609,2.185679,-48.247955,,,,,,,
1504282288.973904,0.111864,0.038742,-0.255361,-1.466824,-0.258514,0.393941,0.111547,-0.038733,-0.993004,-0.039052,-0.146433,0.076744,4.562033,3.833918,-47.885864,,,,,,,
1504282288.983914,0.112390,0.024611,-0.249236,-1.499776,0.216915,0.489112,0.112119,-0.024609,-0.993390,-0.102994,-0.116398,-0.035937,4.562033,3.833918,-47.885864,,,,,,,
1504282288.993923,0.116935,0.008699,-0.242231,-1.669290,0.501758,0.491518,0.116665,-0.008698,-0.993133,-0.055431,-0.178237,-0.054138,5.084692,4.811137,-47.816895,,,,,,,
1504282289.003933,0.118779,-0.004404,-0.235205,-1.254061,0.034730,0.561375,0.118499,0.004404,-0.992944,0.036423,-0.217524,-0.007666,5.084692,4.811137,-47.816895,,,,,,,
1504282289.013943,0.118069,-0.011512,-0.230046,-0.580600,-0.057995,0.368438,0.117787,0.011512,-0.992972,-0.042866,-0.222358,-0.178384,5.307348,6.011256,-47.375336,,,,,,,
1504282289.023953,0.118374,-0.011810,-0.227011,0.084166,0.039966,0.298969,0.118089,0.011810,-0.992933,0.017989,-0.083145,-0.251757,5.307348,6.011256,-47.375336,,,,,,,
1504282289.033962,0.117841,-0.007312,-0.225261,0.532938,-0.073384,0.199611,0.117566,0.007312,-0.993038,0.200748,0.129712,0.005886,5.532354,6.012263,-47.374786,,,,,,,
1504282289.043972,0.116975,0.001105,-0.223887,0.909185,-0.074430,0.274983,0.116708,-0.001105,-0.993166,0.131308,0.150976,0.141283,5.532354,6.012263,-47.374786,,,,,,,
1504282289.053982,0.116579,0.012014,-0.222151,1.088794,-0.016256,0.295472,0.116307,-0.012014,-0.993141,0.038982,0.170339,0.169166,5.383825,5.336894,-47.520081,,,,,,,
1504282289.063961,0.116889,0.023019,-0.220670,1.045642,0.024647,0.241955,0.116592,-0.023017,-0.992913,-0.034698,0.046989,0.171990,5.383825,5.336894,-47.520081,,,,,,,
1504282289.073971,0.118350,0.030797,-0.221830,0.711567,0.179099,-0.128217,0.118018,-0.030792,-0.992534,-0.024756,0.078506,0.108028,5.686193,4.213831,-47.810913,,,,,,,
1504282289.083981,0.119891,0.036965,-0.225692,0.648254,0.134021,-0.341728,0.119522,-0.036956,-0.992143,0.008026,0.182144,0.016649,5.686193,4.213831,-47.810913,,,,,,,
1504282289.093990,0.121396,0.042261,-0.229013,0.523914,0.139179,-0.218134,0.120990,-0.042248,-0.991754,0.035916,0.278591,-0.027380,5.537329,3.763163,-47.807892,,,,,,,
1504282289.104000,0.121947,0.046221,-0.230063,0.368113,0.001713,-0.004681,0.121515,-0.046205,-0.991514,-0.015635,0.095933,-0.011294,5.537329,3.763163,-47.807892,,,,,,,
1504282289.114010,0.121029,0.048572,-0.229898,0.181361,-0.106556,0.043219,0.120591,-0.048553,-0.991514,0.012694,-0.069840,-0.018312,5.537848,3.463450,-47.955688,,,,,,,
1504282289.124020,0.120034,0.048961,-0.229808,-0.003952,-0.086877,0.007639,0.119603,-0.048941,-0.991615,0.041179,-0.118280,-0.064415,5.537848,3.463450,-47.955688,,,,,,,
1504282289.134029,0.119903,0.048215,-0.229740,-0.087457,0.004398,-0.003340,0.119477,-0.048196,-0.991666,0.015334,-0.056433,-0.057314,5.462561,3.538264,-48.031403,,,,,,,
1504282289.144039,0.119813,0.047526,-0.229647,-0.058862,-0.018222,0.003153,0.119392,-0.047508,-0.991710,-0.027854,-0.009254,-0.029103,5.462561,3.538264,-48.031403,,,,,,,
1504282289.154049,0.119366,0.047533,-0.229555,0.020876,-0.048723,0.010817,0.118948,-0.047515,-0.991763,-0.009909,-0.006486,-0.000791,5.612295,3.688792,-47.957184,,,,,,,
1504282289.164059,0.119066,0.048118,-0.229537,0.058440,-0.022391,0.008701,0.118648,-0.048100,-0.991771,0.016637,0.022419,0.007106,5.612295,3.688792,-47.957184,,,,,,,
1504282289.174069,0.119093,0.047059,-0.229262,-0.173929,0.009354,0.014647,0.118680,-0.047042,-0.991818,0.008975,0.037688,0.025204,5.387671,3.537776,-47.956604,,,,,,,
1504282289.184078,0.118710,0.044022,-0.228725,-0.349416,-0.051011,0.019786,0.118316,-0.044008,-0.992000,-0.005020,-0.010878,0.026134,5.387671,3.537776,-47.956604,,,,,,,
1504282289.194088,0.118149,0.039430,-0.227814,-0.499947,-0.048729,0.041937,0.117783,-0.039420,-0.992257,-0.003327,-0.042504,0.007180,5.462515,3.687815,-47.807526,,,,,,,
1504282289.204098,0.117576,0.034156,-0.226713,-0.534172,-0.055911,0.047227,0.117237,-0.034149,-0.992517,0.005535,-0.039261,-0.008368,5.462515,3.687815,-47.807526,,,,,,,
1504282289.214108,0.117085,0.029807,-0.225937,-0.399454,-0.038875,0.017543,0.116766,-0.029802,-0.992712,-0.005530,-0.028303,-0.006082,5.311010,4.062891,-48.185730,,,,,,,
1504282289.224117,0.117027,0.027817,-0.225755,-0.118378,0.003593,-0.008730,0.116715,-0.027814,-0.992776,-0.010437,0.014233,-0.022666,5.311010,4.062891,-48.185730,,,,,,,
1504282289.234127,0.117039,0.029754,-0.226022,0.304090,0.002238,-0.002658,0.116720,-0.029749,-0.992719,0.000864,0.062861,-0.010623,5.760824,4.364176,-47.811859,,,,,,,
1504282289.244137,0.116855,0.035269,-0.226698,0.603657,-0.027935,-0.002086,0.116517,-0.035261,-0.992563,0.014572,0.094877,0.011621,5.760824,4.364176,-47.811859,,,,,,,
1504282289.254147,0.116987,0.042765,-0.227071,0.841577,0.028618,0.090023,0.116614,-0.042752,-0.992257,0.016000,0.106290,0.022988,5.461416,3.988261,-48.034790,,,,,,,
1504282289.264156,0.116559,0.052774,-0.227421,0.967891,-0.087450,0.034942,0.116133,-0.052750,-0.991832,0.007051,0.078827,0.020595,5.461416,3.988261,-48.034790,,,,,,,
1504282289.274136,0.114596,0.059049,-0.229009,0.544055,-0.223380,-0.131000,0.114147,-0.059015,-0.991710,-0.001369,0.032388,0.044886,5.088690,3.086573,-48.028961,,,,,,,
1504282289.284145,0.113584,0.061919,-0.232050,0.261226,-0.084459,-0.318531,0.113123,-0.061879,-0.991652,0.017035,0.163274,-0.024919,5.088690,3.086573,-48.028961,,,,,,,
1504282289.294155,0.113533,0.063947,-0.235504,0.242382,-0.026783,-0.298384,0.113058,-0.063903,-0.991531,0.043970,0.286453,-0.011917,5.164511,2.712061,-48.100983,,,,,,,
1504282289.304165,0.113422,0.065645,-0.238037,0.181253,-0.016771,-0.219520,0.112935,-0.065598,-0.991435,0.029704,-0.040786,0.082011,5.164511,2.712061,-48.100983,,,,,,,
1504282289.314175,0.113617,0.066909,-0.238825,0.116456,0.021897,-0.000883,0.113119,-0.066859,-0.991329,-0.030951,-0.178579,0.007427,4.863913,2.861018,-48.252838,,,,,,,
1504282289.324185,0.113716,0.067240,-0.238356,-0.006608,0.002620,0.041634,0.113215,-0.067189,-0.991296,-0.016748,-0.105388,-0.023078,4.863913,2.861018,-48.252838,,,,,,,
1504282289.334194,0.113461,0.066322,-0.238182,-0.114423,-0.029483,0.000942,0.112969,-0.066274,-0.991386,-0.051979,-0.161555,-0.023263,4.864294,2.711009,-48.251709,,,,,,,
1504282289.344204,0.113402,0.065461,-0.237999,-0.067262,0.004217,0.011639,0.112917,-0.065414,-0.991449,0.018477,-0.025162,-0.047904,4.864294,2.711009,-48.251709,,,,,,,
1504282289.354214,0.113403,0.066028,-0.237524,0.096737,-0.007834,0.054640,0.112913,-0.065980,-0.991412,0.007494,0.060487,-0.001035,4.864477,2.860270,-47.877808,,,,,,,
1504282289.364224,0.113420,0.067990,-0.237798,0.211333,-0.008686,-0.033754,0.112916,-0.067938,-0.991279,-0.001649,0.078177,0.047096,4.864477,2.860270,-47.877808,,,,,,,
1504282289.374233,0.113647,0.068645,-0.237527,-0.000146,0.022793,0.061890,0.113135,-0.068591,-0.991209,0.033502,0.114764,0.007780,4.939596,2.636195,-48.175964,,,,,,,
1504282289.384243,0.113709,0.067130,-0.236549,-0.206051,0.024489,0.061530,0.113209,-0.067080,-0.991304,-0.042393,-0.179426,-0.016813,4.939596,2.636195,-48.175964,,,,,,,
1504282289.394253,0.113992,0.064642,-0.235843,-0.264696,0.024979,0.055023,0.113508,-0.064597,-0.991435,-0.063200,-0.078393,-0.069097,5.014364,2.636836,-48.325775,,,,,,,
1504282289.404263,0.113988,0.062055,-0.234263,-0.269568,0.004681,0.143645,0.113522,-0.062015,-0.991598,0.043521,0.101123,0.001410,5.014364,2.636836,-48.325775,,,,,,,
1504282289.414272,0.113862,0.060735,-0.232821,-0.096636,0.001149,0.120468,0.113406,-0.060697,-0.991693,-0.018527,0.155256,0.021524,5.239019,2.862559,-48.176910,,,,,,,
1504282289.424282,0.114279,0.061343,-0.231711,0.090683,0.074203,0.116394,0.113816,-0.061305,-0.991609,-0.050065,0.201365,0.036698,5.239019,2.862559,-48.176910,,,,,,,
1504282289.434292,0.115442,0.062830,-0.230978,0.142526,0.127099,0.074762,0.114958,-0.062789,-0.991384,-0.040587,0.111983,0.057973,5.313040,3.163188,-48.328979,,,,,,,
1504282289.444302,0.116688,0.063776,-0.230916,0.070337,0.124577,-0.002211,0.116186,-0.063733,-0.991181,-0.049856,0.055722,0.030899,5.313040,3.163188,-48.328979,,,,,,,
1504282289.454311,0.118286,0.063775,-0.231317,-0.014341,0.178605,-0.051554,0.117770,-0.063732,-0.990994,-0.035724,0.039455,-0.014377,5.537771,3.314051,-48.254547,,,,,,,
1504282289.464321,0.120739,0.063115,-0.232175,-0.065709,0.257941,-0.107288,0.120206,-0.063073,-0.990743,-0.017439,0.010705,-0.023096,5.537771,3.314051,-48.254547,,,,,,,
1504282289.474331,0.123627,0.062271,-0.233560,-0.058905,0.277118,-0.157478,0.123073,-0.062230,-0.990445,0.001210,-0.035716,0.016354,5.762884,3.314906,-48.179016,,,,,,,
1504282289.484341,0.125882,0.061735,-0.235121,-0.028614,0.193755,-0.160480,0.125310,-0.061695,-0.990197,0.017268,-0.066082,0.046975,5.762884,3.314906,-48.179016,,,,,,,
1504282289.494320,0.127551,0.061298,-0.236994,-0.018082,0.150023,-0.203081,0.126967,-0.061259,-0.990013,0.059373,-0.122197,0.042275,5.763037,3.165217,-48.327881,,,,,,,
1504282289.504330,0.129444,0.060992,-0.239315,0.005860,0.186094,-0.239395,0.128843,-0.060954,-0.989790,0.043078,-0.101262,-0.009234,5.763037,3.165217,-48.327881,,,,,,,
1504282289.514340,0.132149,0.060241,-0.241968,-0.060467,0.268739,-0.285554,0.131525,-0.060205,-0.989483,-0.022242,-0.010657,-0.018131,5.838568,3.090098,-48.102112,,,,,,,
1504282289.524349,0.134707,0.058852,-0.244994,-0.106608,0.212681,-0.322894,0.134068,-0.058818,-0.989225,-0.040516,0.042201,-0.010302,5.838568,3.090098,-48.102112,,,,,,,
1504282289.534359,0.135816,0.057360,-0.248098,-0.105754,0.050706,-0.325809,0.135176,-0.057329,-0.989162,-0.018477,0.074464,-0.016866,5.838110,3.314951,-48.028809,,,,,,,
1504282289.544369,0.135297,0.055737,-0.251235,-0.136719,-0.100330,-0.349079,0.134675,-0.055708,-0.989323,-0.017518,0.063017,-0.022167,5.838110,3.314951,-48.028809,,,,,,,
1504282289.554379,0.136376,0.053473,-0.254753,-0.183363,0.181411,-0.385949,0.135760,-0.053447,-0.989299,-0.075487,0.029018,-0.025899,5.987020,3.616068,-48.255676,,,,,,,
1504282289.564388,0.139072,0.051903,-0.258035,-0.068913,0.261381,-0.315443,0.138438,-0.051880,-0.989011,-0.061824,0.086914,-0.069720,5.987020,3.616068,-48.255676,,,,,,,
1504282289.574403,0.138295,0.052320,-0.259165,0.104324,-0.186816,-0.042165,0.137666,-0.052296,-0.989097,0.025038,0.181202,0.012718,5.987204,3.765330,-47.881775,,,,,,,
1504282289.584413,0.135254,0.053452,-0.259012,0.127415,-0.316030,0.041361,0.134649,-0.053427,-0.989452,0.101435,0.115866,0.022213,5.987204,3.765330,-47.881775,,,,,,,
1504282289.594423,0.132748,0.054778,-0.258342,0.102382,-0.210386,0.095568,0.132160,-0.054751,-0.989715,0.168377,0.131228,-0.041794,5.912130,3.615595,-48.180878,,,,,,,
1504282289.604431,0.131803,0.054502,-0.257414,-0.099104,-0.060587,0.079983,0.131227,-0.054475,-0.989855,0.066756,0.156129,0.227220,5.912130,3.615595,-48.180878,,,,,,,
1504282289.614441,0.131414,0.051765,-0.256306,-0.348565,-0.034025,0.081639,0.130861,-0.051742,-0.990050,-0.095476,0.093658,0.292006,5.611532,3.764536,-48.332733,,,,,,,
1504282289.624451,0.130836,0.047158,-0.254195,-0.513421,-0.048741,0.167839,0.130318,-0.047140,-0.990351,-0.080132,-0.014261,0.019617,5.611532,3.764536,-48.332733,,,,,,,
1504282289.634461,0.130795,0.042396,-0.251803,-0.485045,0.032009,0.169881,0.130305,-0.042383,-0.990568,-0.026561,-0.195898,-0.206118,5.761419,3.989619,-48.034058,,,,,,,
1504282289.644470,0.131467,0.038811,-0.249769,-0.340519,0.081986,0.151897,0.130990,-0.038801,-0.990624,0.013663,-0.183840,-0.246070,5.761419,3.989619,-48.034058,,,,,,,
1504282289.654480,0.131929,0.036744,-0.248146,-0.191358,0.039227,0.125546,0.131458,-0.036736,-0.990641,0.014889,-0.132743,-0.132879,5.911001,4.065592,-48.184265,,,,,,,
1504282289.664490,0.131829,0.035915,-0.246959,-0.071212,-0.028869,0.100257,0.131362,-0.035907,-0.990684,0.004090,-0.084164,-0.011483,5.911001,4.065592,-48.184265,,,,,,,
1504282289.674500,0.131129,0.035562,-0.246260,-0.043585,-0.076992,0.045952,0.130671,-0.035555,-0.990788,0.038931,-0.077788,0.072987,5.610632,4.214243,-48.186127,,,,,,,
1504282289.684510,0.130323,0.034892,-0.246096,-0.079651,-0.076652,0.004260,0.129875,-0.034885,-0.990916,0.074013,-0.068417,0.101039,5.610632,4.214243,-48.186127,,,,,,,
1504282289.694520,0.129494,0.033983,-0.245654,-0.093719,-0.080833,0.037332,0.129058,-0.033976,-0.991055,0.070955,-0.023885,0.078762,5.385855,4.212931,-48.036652,,,,,,,
1504282289.704530,0.128867,0.033309,-0.245104,-0.074293,-0.045840,0.049046,0.128440,-0.033303,-0.991158,0.012323,0.006691,0.011223,5.385855,4.212931,-48.036652,,,,,,,
1504282289.714509,0.128573,0.032378,-0.244219,-0.122392,-0.029505,0.092697,0.128152,-0.032372,-0.991226,-0.024240,-0.013923,-0.039765,5.610479,4.363947,-48.037231,,,,,,,
1504282289.724519,0.127817,0.031800,-0.243094,-0.022461,-0.071891,0.097215,0.127404,-0.031795,-0.991341,-0.009042,-0.071431,-0.078895,5.610479,4.363947,-48.037231,,,,,,,
1504282289.734529,0.127625,0.036180,-0.242593,0.670473,-0.009402,0.099373,0.127195,-0.036172,-0.991218,0.009661,0.053658,-0.053292,5.760473,4.364619,-48.036865,,,,,,,
1504282289.744539,0.127076,0.044465,-0.243106,0.667260,-0.064697,0.013005,0.126609,-0.044451,-0.990956,0.023156,0.180010,0.064778,5.760473,4.364619,-48.036865,,,,,,,
1504282289.754548,0.127920,0.045348,-0.243192,-0.085116,0.054439,0.026435,0.127440,-0.045333,-0.990810,-0.057570,0.004943,-0.069264,5.462210,3.762965,-47.883087,,,,,,,
1504282289.764558,0.127324,0.040079,-0.242217,-0.648236,-0.058127,0.014983,0.126878,-0.040068,-0.991109,0.003478,-0.018068,-0.073650,5.462210,3.762965,-47.883087,,,,,,,
1504282289.774568,0.126636,0.032947,-0.241328,-0.706994,-0.073617,0.005302,0.126229,-0.032941,-0.991454,0.052085,-0.080966,0.050948,5.910482,4.365290,-48.036499,,,,,,,
1504282289.784577,0.126076,0.027372,-0.240165,-0.506377,-0.040154,0.052557,0.125695,-0.027369,-0.991691,-0.009255,-0.075155,0.083915,5.910482,4.365290,-48.036499,,,,,,,
1504282289.794586,0.125831,0.024346,-0.239426,-0.241495,-0.022060,0.025231,0.125462,-0.024343,-0.991800,-0.047154,-0.030436,0.063623,5.759085,4.964472,-47.966370,,,,,,,
1504282289.804596,0.125536,0.023873,-0.239442,0.011488,-0.033690,-0.017006,0.125171,-0.023870,-0.991848,-0.012057,0.076467,0.003643,5.759085,4.964472,-47.966370,,,,,,,
1504282289.814606,0.125466,0.024557,-0.239866,0.074846,0.004172,-0.038311,0.125099,-0.024554,-0.991840,0.033791,0.145419,-0.028118,5.759832,4.888728,-47.590790,,,,,,,
1504282289.824616,0.125734,0.024788,-0.240455,0.011131,0.027099,-0.061945,0.125364,-0.024785,-0.991801,0.017061,0.100118,-0.006429,5.759832,4.888728,-47.590790,,,,,,,
1504282289.834626,0.126097,0.024232,-0.240758,-0.070077,0.037316,-0.021542,0.125726,-0.024229,-0.991769,-0.005426,0.032072,0.018457,5.759085,5.188715,-47.593048,,,,,,,
1504282289.844635,0.126452,0.023228,-0.240536,-0.104438,0.031170,0.012566,0.126081,-0.023226,-0.991748,-0.023054,-0.029767,0.024463,5.759085,5.188715,-47.593048,,,,,,,
1504282289.854645,0.126508,0.022656,-0.240249,-0.039674,-0.001344,0.024477,0.126139,-0.022654,-0.991754,0.004080,-0.045187,0.026468,5.684317,4.963831,-47.816559,,,,,,,
1504282289.864655,0.126564,0.022651,-0.239931,-0.000164,0.010040,0.036267,0.126194,-0.022649,-0.991747,0.026180,0.008123,0.017534,5.684317,4.963831,-47.816559,,,,,,,
1504282289.874665,0.126412,0.022741,-0.239355,0.001549,-0.025168,0.064084,0.126043,-0.022739,-0.991764,0.007899,0.035709,-0.001018,5.759497,5.113429,-47.442474,,,,,,,
1504282289.884675,0.126106,0.022862,-0.238648,0.012184,-0.024198,0.072640,0.125739,-0.022860,-0.991800,0.015389,0.024294,-0.012961,5.759497,5.113429,-47.442474,,,,,,,
1504282289.894685,0.125607,0.023622,-0.238107,0.097211,-0.077093,0.053668,0.125242,-0.023620,-0.991845,0.017840,0.016021,-0.028022,5.684835,4.888392,-47.590973,,,,,,,
1504282289.904695,0.125584,0.023712,-0.237849,-0.011837,0.008022,0.020239,0.125218,-0.023710,-0.991846,0.009501,0.007246,-0.014914,5.684835,4.888392,-47.590973,,,,,,,
1504282289.914705,0.125202,0.023709,-0.237756,0.005919,-0.049650,0.004361,0.124840,-0.023707,-0.991894,-0.009606,0.076883,0.012295,5.384237,5.037333,-47.742828,,,,,,,
1504282289.924713,0.124918,0.023505,-0.237860,-0.021469,-0.019564,-0.018155,0.124559,-0.023503,-0.991934,-0.015062,0.076253,0.055441,5.384237,5.037333,-47.742828,,,,,,,
1504282289.934694,0.124696,0.023550,-0.238000,0.020060,-0.023114,-0.007403,0.124339,-0.023548,-0.991960,-0.021464,0.003346,0.045198,5.459463,5.037379,-47.592651,,,,,,,
1504282289.944702,0.124328,0.024465,-0.237875,0.113608,-0.039912,0.034417,0.123971,-0.024463,-0.991984,0.008979,0.015414,0.035304,5.459463,5.037379,-47.592651,,,,,,,
1504282289.954712,0.124015,0.026053,-0.237613,0.157368,-0.030694,0.046218,0.123655,-0.026050,-0.991983,0.015108,0.020099,0.012674,5.684317,4.963831,-47.816559,,,,,,,
1504282289.964722,0.123585,0.027176,-0.237674,0.088167,-0.047115,-0.010445,0.123225,-0.027172,-0.992007,0.026494,0.049267,-0.002027,5.684317,4.963831,-47.816559,,,,,,,
1504282289.974732,0.123350,0.026966,-0.238601,-0.050786,-0.017079,-0.126018,0.122993,-0.026963,-0.992041,0.027413,0.083100,-0.010614,5.459127,5.037821,-47.817657,,,,,,,
1504282289.984741,0.123600,0.025073,-0.239791,-0.196869,0.017119,-0.088972,0.123246,-0.025070,-0.992059,0.003447,0.117615,0.006876,5.459127,5.037821,-47.817657,,,,,,,
1504282289.994751,0.122626,0.022584,-0.237909,-0.290024,-0.101777,0.215286,0.122288,-0.022582,-0.992238,0.033962,0.115370,0.037389,5.158819,5.335871,-47.520630,,,,,,,
1504282290.004761,0.122545,0.018683,-0.235013,-0.461102,0.000839,0.239358,0.122217,-0.018682,-0.992328,-0.053980,-0.134409,0.042148,5.158819,5.335871,-47.520630,,,,,,,
1504282290.014771,0.122325,0.014078,-0.232017,-0.483714,-0.025614,0.238298,0.122008,-0.014078,-0.992429,-0.093490,-0.151145,0.004606,5.309271,5.111704,-47.593597,,,,,,,
1504282290.024781,0.121851,0.010498,-0.229194,-0.362195,-0.041530,0.235335,0.121543,-0.010498,-0.992531,-0.005408,-0.012330,-0.007851,5.309271,5.111704,-47.593597,,,,,,,
1504282290.034791,0.121328,0.008187,-0.226531,-0.217021,-0.035262,0.231306,0.121026,-0.008187,-0.992616,-0.015771,-0.037940,-0.035628,5.307989,5.711405,-47.448090,,,,,,,
1504282290.044801,0.121304,0.007401,-0.224097,-0.081191,0.007306,0.233601,0.121003,-0.007401,-0.992625,0.014388,0.030442,0.006541,5.307989,5.711405,-47.448090,,,,,,,
1504282290.054811,0.121438,0.006622,-0.221846,-0.126851,0.017302,0.205752,0.121137,-0.006622,-0.992614,0.031863,0.055069,0.060271,5.608038,5.563197,-47.671204,,,,,,,
1504282290.064821,0.121569,0.004773,-0.219832,-0.236597,0.011852,0.167145,0.121269,-0.004773,-0.992608,-0.001487,-0.016636,0.009851,5.608038,5.563197,-47.671204,,,,,,,
1504282290.074830,0.121439,0.001730,-0.218073,-0.346489,-0.013839,0.125371,0.121140,-0.001730,-0.992634,0.007034,-0.050150,-0.042568,5.532873,5.712565,-47.522522,,,,,,,
1504282290.084840,0.121378,-0.001936,-0.216733,-0.390958,0.000428,0.079370,0.121080,0.001936,-0.992641,0.026946,-0.054381,-0.039418,5.532873,5.712565,-47.522522,,,,,,,
1504282290.094850,0.121416,-0.006127,-0.215794,-0.451394,0.015897,0.028003,0.121116,0.006127,-0.992620,0.007836,-0.021844,0.005239,5.531713,6.312113,-47.302032,,,,,,,
1504282290.104860,0.121880,-0.011607,-0.214833,-0.591027,0.039414,0.038394,0.121570,0.011607,-0.992515,-0.021717,0.009008,0.027015,5.531713,6.312113,-47.302032,,,,,,,
1504282290.114868,0.122098,-0.018079,-0.213465,-0.671451,0.004885,0.063933,0.121775,0.018078,-0.992393,-0.017984,0.001667,0.002067,5.530844,6.612269,-47.379272,,,,,,,
1504282290.124878,0.122003,-0.024866,-0.212009,-0.688678,-0.017346,0.059673,0.121663,0.024863,-0.992260,-0.010228,-0.052466,-0.032810,5.530844,6.612269,-47.379272,,,,,,,
1504282290.134888,0.121901,-0.031530,-0.210606,-0.682137,-0.002477,0.055388,0.121538,0.031525,-0.992086,0.003324,-0.024978,-0.049265,5.454748,7.136637,-47.233429,,,,,,,
1504282290.144898,0.121783,-0.038893,-0.209156,-0.777365,-0.035793,0.056349,0.121390,0.038883,-0.991843,0.014032,0.024105,-0.002252,5.454748,7.136637,-47.233429,,,,,,,
1504282290.154877,0.120795,-0.046568,-0.207418,-0.768593,-0.119016,0.089601,0.120371,0.046552,-0.991637,0.009176,0.033740,0.041960,5.753881,7.662394,-46.936615,,,,,,,
1504282290.164887,0.119737,-0.053103,-0.205651,-0.630999,-0.123348,0.090914,0.119283,0.053078,-0.991440,-0.006017,-0.023293,0.019288,5.753881,7.662394,-46.936615,,,,,,,
1504282290.174897,0.119801,-0.058698,-0.204389,-0.564554,0.031708,0.066206,0.119308,0.058664,-0.991123,-0.000259,-0.022791,-0.024533,5.752829,8.037531,-47.014435,,,,,,,
1504282290.184906,0.120547,-0.064486,-0.202746,-0.607196,0.058662,0.102376,0.120005,0.064441,-0.990680,0.022375,0.101407,-0.049817,5.752829,8.037531,-47.014435,,,,,,,
1504282290.194916,0.120921,-0.070667,-0.200955,-0.634243,0.011998,0.102411,0.120325,0.070608,-0.990220,-0.037608,0.019678,-0.025161,5.826468,8.712427,-46.794312,,,,,,,
1504282290.204926,0.120557,-0.076085,-0.199107,-0.544166,-0.050572,0.125093,0.119917,0.076012,-0.989870,0.004549,0.000008,-0.036543,5.826468,8.712427,-46.794312,,,,,,,
1504282290.214936,0.120274,-0.080534,-0.197063,-0.435455,-0.045107,0.157294,0.119595,0.080447,-0.989558,0.017017,0.054257,-0.041692,5.900229,9.387171,-46.499207,,,,,,,
1504282290.224946,0.120104,-0.084218,-0.194955,-0.378846,-0.032794,0.164842,0.119391,0.084119,-0.989277,-0.000494,0.064410,-0.005794,5.900229,9.387171,-46.499207,,,,,,,
1504282290.234956,0.120017,-0.087342,-0.193032,-0.310408,-0.024814,0.146801,0.119273,0.087231,-0.989022,-0.013590,0.049915,0.013574,5.599295,9.760828,-46.502747,,,,,,,
1504282290.244966,0.120005,-0.089394,-0.191605,-0.180996,-0.010919,0.106439,0.119239,0.089275,-0.988844,-0.009452,0.026524,0.012022,5.599295,9.760828,-46.502747,,,,,,,
1504282290.254976,0.120183,-0.090407,-0.190604,-0.083550,0.018140,0.082007,0.119404,0.090284,-0.988732,0.009823,0.043642,0.031533,5.974432,9.837061,-46.277344,,,,,,,
1504282290.264985,0.120333,-0.090786,-0.189975,-0.038640,0.009281,0.047943,0.119548,0.090662,-0.988680,0.004887,0.025076,0.052126,5.974432,9.837061,-46.277344,,,,,,,
1504282290.274994,0.120278,-0.090738,-0.189684,0.002951,-0.009150,0.022430,0.119495,0.090613,-0.988691,0.002224,-0.004249,0.029615,5.823767,10.061533,-46.354462,,,,,,,
1504282290.285004,0.120202,-0.090273,-0.189653,0.056433,-0.002115,0.006499,0.119425,0.090151,-0.988742,0.035421,0.017820,-0.003736,5.823767,10.061533,-46.354462,,,,,,,
1504282290.295014,0.120291,-0.089115,-0.189678,0.138697,0.014253,0.010883,0.119525,0.088997,-0.988834,0.017056,0.002616,0.001041,5.823126,10.361399,-46.281677,,,,,,,
1504282290.305023,0.120650,-0.086881,-0.189806,0.254146,0.043136,0.013167,0.119904,0.086772,-0.988986,-0.008194,0.002874,0.013263,5.823126,10.361399,-46.281677,,,,,,,
1504282290.315033,0.121189,-0.083334,-0.190212,0.395205,0.061172,-0.002632,0.120473,0.083237,-0.989221,-0.016667,0.030822,0.004052,6.124655,9.613184,-46.500336,,,,,,,
1504282290.325043,0.122103,-0.078042,-0.191080,0.584576,0.110788,-0.028009,0.121429,0.077963,-0.989534,-0.001541,0.035563,-0.004912,6.124655,9.613184,-46.500336,,,,,,,
1504282290.335053,0.123249,-0.070724,-0.192428,0.799269,0.126093,-0.051147,0.122629,0.070665,-0.989934,0.010137,0.055373,0.012135,5.600500,9.235971,-46.573792,,,,,,,
1504282290.345063,0.124525,-0.061014,-0.194326,1.048139,0.146444,-0.073167,0.123972,0.060976,-0.990410,0.008947,0.055387,0.049126,5.600500,9.235971,-46.573792,,,,,,,
1504282290.355072,0.125941,-0.049526,-0.196647,1.201914,0.153719,-0.088924,0.125454,0.049506,-0.990864,0.013401,0.042733,0.058872,5.751806,8.487391,-46.942780,,,,,,,
1504282290.365083,0.127236,-0.037891,-0.199059,1.165461,0.129514,-0.092147,0.126802,0.037882,-0.991204,0.016356,0.051412,0.046670,5.751806,8.487391,-46.942780,,,,,,,
1504282290.375062,0.127813,-0.027035,-0.201011,1.076955,0.037477,-0.035565,0.127418,0.027032,-0.991481,0.017220,0.073615,0.017939,5.903997,7.438654,-47.234558,,,,,,,
1504282290.385072,0.127452,-0.016672,-0.202054,1.035239,-0.059233,0.044588,0.127090,0.016671,-0.991751,0.009263,0.059287,-0.007791,5.903997,7.438654,-47.234558,,,,,,,
1504282290.395082,0.126974,-0.006487,-0.203034,1.030331,-0.019742,0.022095,0.126631,0.006487,-0.991929,-0.008314,0.043790,-0.026641,5.681036,6.537943,-47.378357,,,,,,,
1504282290.405092,0.127027,0.003539,-0.204701,1.013834,0.002854,-0.056962,0.126685,-0.003539,-0.991937,-0.012687,0.086699,-0.011161,5.681036,6.537943,-47.378357,,,,,,,
1504282290.415101,0.126934,0.013271,-0.206427,0.967727,-0.013836,-0.037799,0.126582,-0.013271,-0.991867,-0.013652,0.138637,0.043000,5.907309,5.714991,-47.896606,,,,,,,
1504282290.425111,0.126524,0.021619,-0.207449,0.786820,-0.055025,0.015330,0.126157,-0.021617,-0.991775,-0.007658,0.077587,0.046340,5.907309,5.714991,-47.896606,,,,,,,
1504282290.435121,0.125820,0.027656,-0.207985,0.501783,-0.073992,0.018072,0.125441,-0.027653,-0.991716,-0.002500,-0.035610,0.035585,5.909765,4.740000,-47.889282,,,,,,,
1504282290.445131,0.125291,0.030413,-0.208187,0.202212,-0.047011,0.013236,0.124906,-0.030408,-0.991703,0.006915,-0.037265,-0.011364,5.909765,4.740000,-47.889282,,,,,,,
1504282290.455139,0.125024,0.030654,-0.208082,-0.026995,-0.022747,0.014930,0.124640,-0.030649,-0.991729,0.003473,-0.026037,-0.047578,5.759161,4.889613,-48.040802,,,,,,,
1504282290.465149,0.124803,0.029684,-0.207768,-0.112354,-0.019919,0.020115,0.124425,-0.029679,-0.991785,-0.007832,-0.041213,-0.062017,5.759161,4.889613,-48.040802,,,,,,,
1504282290.475159,0.124635,0.028866,-0.207440,-0.065411,-0.018177,0.023395,0.124261,-0.028862,-0.991830,-0.007989,-0.036140,-0.049811,5.684683,4.813838,-47.815430,,,,,,,
1504282290.485169,0.124650,0.028991,-0.207289,0.036225,0.009768,0.012848,0.124276,-0.028987,-0.991824,-0.003716,-0.006383,-0.011166,5.684683,4.813838,-47.815430,,,,,,,
1504282290.495178,0.124747,0.029915,-0.207387,0.107760,0.008126,0.000166,0.124368,-0.029911,-0.991785,-0.017327,0.026890,0.018290,5.684652,4.739130,-47.964874,,,,,,,
1504282290.505188,0.124755,0.031253,-0.207526,0.143856,-0.010293,0.006665,0.124371,-0.031248,-0.991744,-0.004498,0.065672,0.028197,5.684652,4.739130,-47.964874,,,,,,,
1504282290.515198,0.124455,0.032882,-0.207592,0.165988,-0.039255,0.015294,0.124067,-0.032876,-0.991729,0.024462,0.089227,0.006179,5.834723,4.664958,-48.038940,,,,,,,
1504282290.525208,0.123779,0.034762,-0.207607,0.192352,-0.072515,0.023938,0.123388,-0.034755,-0.991750,0.045908,0.066966,-0.010951,5.834723,4.664958,-48.038940,,,,,,,
1504282290.535218,0.123052,0.036907,-0.207642,0.221211,-0.067422,0.021844,0.122659,-0.036899,-0.991763,0.029594,0.042483,-0.010908,5.610098,4.513941,-48.038361,,,,,,,
1504282290.545228,0.122654,0.039052,-0.207746,0.206595,-0.033193,0.012151,0.122254,-0.039042,-0.991731,-0.000656,0.027796,-0.005218,5.610098,4.513941,-48.038361,,,,,,,
1504282290.555238,0.122473,0.040523,-0.207925,0.119332,-0.014343,-0.002977,0.122067,-0.040512,-0.991695,-0.032192,-0.010635,0.006954,5.760290,4.439616,-48.037415,,,,,,,
1504282290.565248,0.122199,0.040991,-0.207992,0.028510,-0.029581,-0.000972,0.121793,-0.040979,-0.991709,-0.029233,-0.013784,-0.009252,5.760290,4.439616,-48.037415,,,,,,,
1504282290.575225,0.122145,0.040978,-0.208227,-0.000900,0.011183,-0.028848,0.121739,-0.040967,-0.991716,0.000972,0.003186,-0.018660,5.385672,4.287928,-48.037231,,,,,,,
1504282290.585204,0.122581,0.041182,-0.208527,0.040876,0.033214,-0.026679,0.122171,-0.041170,-0.991655,-0.016717,-0.006956,0.004167,5.385672,4.287928,-48.037231,,,,,,,
1504282290.595214,0.122910,0.041657,-0.208844,0.036530,0.024723,-0.024537,0.122495,-0.041645,-0.991595,-0.012082,-0.008327,0.034015,5.761267,4.139323,-47.885162,,,,,,,
1504282290.605223,0.123153,0.040477,-0.208690,-0.159974,0.028441,0.010314,0.122741,-0.040466,-0.991613,0.012848,0.005280,-0.003717,5.761267,4.139323,-47.885162,,,,,,,
1504282290.615233,0.123463,0.038305,-0.208388,-0.229074,0.047147,-0.010119,0.123059,-0.038296,-0.991660,0.046024,0.074535,-0.006844,5.835852,4.214961,-48.035553,,,,,,,
1504282290.625243,0.124286,0.036476,-0.208623,-0.152814,0.085987,-0.049549,0.123884,-0.036468,-0.991626,0.015826,0.080566,0.053806,5.835852,4.214961,-48.035553,,,,,,,
1504282290.635253,0.125110,0.035568,-0.208793,-0.068760,0.076737,-0.017365,0.124705,-0.035561,-0.991556,-0.004206,0.017037,0.078532,5.760290,4.439616,-48.037415,,,,,,,
1504282290.645262,0.124815,0.037304,-0.208753,0.000401,0.062293,0.000925,0.124404,-0.037296,-0.991530,-0.010787,-0.012570,0.029418,5.760290,4.439616,-48.037415,,,,,,,
1504282290.655272,0.125572,0.037699,-0.208868,0.052861,0.078921,-0.008620,0.125154,-0.037690,-0.991421,0.003936,0.008713,-0.033710,5.984793,4.590785,-48.113007,,,,,,,
1504282290.665282,0.126433,0.038451,-0.209099,0.083872,0.082935,-0.016045,0.126003,-0.038442,-0.991285,0.042744,0.041371,-0.049044,5.984793,4.590785,-48.113007,,,,,,,
1504282290.675292,0.127165,0.039015,-0.209413,0.042246,0.073700,-0.027842,0.126726,-0.039005,-0.991171,0.009199,0.033374,-0.052668,5.909842,4.665141,-47.963776,,,,,,,
1504282290.685302,0.124919,0.036603,-0.209662,-0.099580,0.069546,-0.050492,0.124511,-0.036595,-0.991543,-0.022598,0.013340,-0.032016,5.909842,4.665141,-47.963776,,,,,,,
1504282290.695311,0.125486,0.034116,-0.209893,-0.296027,0.049858,-0.056135,0.125084,-0.034109,-0.991560,-0.026283,-0.000086,0.018079,5.985296,4.440623,-48.036865,,,,,,,
1504282290.705321,0.125833,0.029974,-0.210180,-0.434750,0.026526,-0.089424,0.125445,-0.029969,-0.991648,-0.034228,-0.018737,0.037165,5.985296,4.440623,-48.036865,,,,,,,
1504282290.715331,0.126227,0.025612,-0.210815,-0.401329,0.046536,-0.126760,0.125851,-0.025609,-0.991719,-0.034954,-0.042796,0.029927,5.834539,4.739954,-48.039490,,,,,,,
1504282290.725341,0.123204,0.028318,-0.211814,-0.185239,0.100171,-0.144627,0.122843,-0.028314,-0.992022,-0.037867,-0.051688,0.000933,5.834539,4.739954,-48.039490,,,,,,,
1504282290.735350,0.124463,0.028088,-0.213140,0.044313,0.127041,-0.133603,0.124093,-0.028085,-0.991873,-0.037042,-0.036964,-0.020456,5.308783,5.037592,-48.043030,,,,,,,
1504282290.745360,0.125926,0.029065,-0.214809,0.126754,0.145571,-0.161245,0.125540,-0.029061,-0.991663,-0.000586,-0.025963,-0.035208,5.308783,5.037592,-48.043030,,,,,,,
1504282290.755370,0.127535,0.029570,-0.216755,0.049106,0.154770,-0.194485,0.127134,-0.029566,-0.991445,0.026857,-0.000143,-0.060710,5.308706,5.112452,-47.968628,,,,,,,
1504282290.765380,0.129069,0.025204,-0.218289,-0.116096,0.076160,-0.146597,0.128670,-0.025201,-0.991367,0.010994,0.035257,-0.050381,5.308706,5.112452,-47.968628,,,,,,,
1504282290.775389,0.129089,0.023418,-0.219186,-0.154394,-0.017340,-0.104870,0.128695,-0.023416,-0.991408,-0.006228,0.050928,-0.003923,5.008749,4.961543,-48.193237,,,,,,,
1504282290.785399,0.128991,0.023581,-0.220112,0.091083,0.002998,-0.088470,0.128598,-0.023579,-0.991417,-0.007855,0.078434,0.032936,5.008749,4.961543,-48.193237,,,,,,,
1504282290.795409,0.129445,0.025154,-0.221149,0.177845,0.050228,-0.080931,0.129043,-0.025152,-0.991320,-0.015899,0.122197,0.089938,4.034964,4.656565,-47.893341,,,,,,,
1504282290.805388,0.129942,0.026216,-0.222187,0.085092,0.051005,-0.093902,0.129532,-0.026213,-0.991229,-0.016114,0.101882,0.102343,4.034964,4.656565,-47.893341,,,,,,,
1504282290.815398,0.131724,0.019483,-0.223253,-0.150783,0.029535,-0.120955,0.131319,-0.019482,-0.991149,0.011198,0.058224,0.019530,2.760244,4.500987,-47.970398,,,,,,,
1504282290.825408,0.131972,0.017404,-0.224199,-0.191363,0.025606,-0.119951,0.131569,-0.017403,-0.991154,0.027641,-0.003516,-0.055232,2.760244,4.500987,-47.970398,,,,,,,
1504282290.835417,0.131773,0.016060,-0.225095,-0.085317,-0.046678,-0.105763,0.131375,-0.016059,-0.991203,0.002124,0.000327,-0.037560,2.085089,4.647654,-47.823181,,,,,,,
1504282290.845427,0.131419,0.015512,-0.226068,-0.022313,-0.036546,-0.100335,0.131025,-0.015511,-0.991258,-0.005705,0.019875,0.042222,2.085089,4.647654,-47.823181,,,,,,,
1504282290.855437,0.133485,0.012410,-0.227150,0.004211,-0.060182,-0.114123,0.133079,-0.012410,-0.991028,0.019570,0.032963,0.072205,0.660925,4.490641,-47.525543,,,,,,,
1504282290.865447,0.132916,0.012670,-0.228757,0.058928,-0.057377,-0.170606,0.132514,-0.012670,-0.991100,0.049508,0.023046,0.057598,0.660925,4.490641,-47.525543,,,,,,,
1504282290.875457,0.132627,0.013200,-0.231100,0.089530,-0.014924,-0.248548,0.132227,-0.013199,-0.991132,0.066107,0.035355,0.007642,-0.613642,4.409617,-47.378143,,,,,,,
1504282290.885466,0.132745,0.014078,-0.234148,0.147236,-0.006869,-0.253799,0.132343,-0.014078,-0.991104,0.045407,0.060632,-0.018066,-0.613642,4.409617,-47.378143,,,,,,,
1504282290.895476,0.133157,0.015240,-0.236048,0.110889,0.043415,-0.158952,0.132749,-0.015240,-0.991033,0.027163,0.095989,-0.011622,-1.287729,4.181132,-47.153107,,,,,,,
1504282290.905486,0.133481,0.015673,-0.237954,0.039342,0.016331,-0.189983,0.133069,-0.015673,-0.990983,-0.077740,-0.053480,-0.007217,-1.287729,4.181132,-47.153107,,,,,,,
1504282290.915496,0.133412,0.014982,-0.240039,-0.055988,-0.043600,-0.211390,0.133001,-0.014981,-0.991003,-0.055868,0.030591,-0.024607,-2.112284,3.952570,-47.228455,,,,,,,
1504282290.925505,0.132726,0.014700,-0.240788,-0.013281,-0.072891,-0.050087,0.132322,-0.014700,-0.991098,0.059435,0.115133,-0.029883,-2.112284,3.952570,-47.228455,,,,,,,
1504282290.935515,0.131568,0.014840,-0.241209,0.033134,-0.129766,-0.034963,0.131174,-0.014840,-0.991248,0.015631,-0.029792,0.031516,-2.636377,3.724757,-47.003052,,,,,,,
1504282290.945525,0.130366,0.015643,-0.241537,0.102549,-0.111174,-0.017797,0.129981,-0.015643,-0.991393,0.005441,-0.033292,0.060943,-2.636377,3.724757,-47.003052,,,,,,,
1504282290.955535,0.129819,0.017006,-0.241777,0.144733,-0.029487,-0.001857,0.129436,-0.017005,-0.991442,0.075062,0.029975,0.010485,-3.310953,3.422175,-47.227478,,,,,,,
1504282290.965544,0.129958,0.018743,-0.242001,0.177183,0.027785,0.001301,0.129569,-0.018741,-0.991393,0.021187,-0.009945,-0.030808,-3.310953,3.422175,-47.227478,,,,,,,
1504282290.975554,0.130598,0.020428,-0.242236,0.159470,0.076955,-0.005221,0.130200,-0.020426,-0.991277,0.009448,0.021647,-0.085230,-3.461252,3.496653,-47.303375,,,,,,,
1504282290.985564,0.131431,0.021602,-0.242526,0.114608,0.071994,-0.003155,0.131022,-0.021600,-0.991144,0.008626,0.022821,-0.085363,-3.461252,3.496653,-47.303375,,,,,,,
1504282290.995574,0.131893,0.022477,-0.242307,0.069397,0.039304,0.024577,0.131478,-0.022475,-0.991064,0.007042,0.067000,-0.066461,-3.610529,3.121272,-47.450958,,,,,,,
1504282291.005584,0.130573,0.019102,-0.242047,0.024162,-0.001909,0.038450,0.130178,-0.019101,-0.991307,-0.017050,0.045636,-0.006496,-3.610529,3.121272,-47.450958,,,,,,,
1504282291.015593,0.130298,0.019293,-0.241484,0.007874,-0.024174,0.059809,0.129906,-0.019291,-0.991339,0.050316,0.044804,0.036413,-3.310495,3.197321,-47.300781,,,,,,,
1504282291.025573,0.130449,0.019453,-0.240848,0.008269,0.031224,0.069319,0.130055,-0.019452,-0.991316,0.049236,0.013928,0.034330,-3.310495,3.197321,-47.300781,,,,,,,
1504282291.035582,0.130995,0.019773,-0.240293,0.032075,0.063013,0.053293,0.130595,-0.019772,-0.991239,0.012166,0.013425,-0.000964,-2.186563,3.353281,-47.749146,,,,,,,
1504282291.045592,0.131041,0.021543,-0.240129,0.079383,0.081842,0.012780,0.130636,-0.021541,-0.991196,-0.004446,-0.014576,-0.047271,-2.186563,3.353281,-47.749146,,,,,,,
1504282291.055602,0.131996,0.022949,-0.240250,0.168083,0.099228,0.011836,0.131579,-0.022947,-0.991040,-0.019106,-0.029742,-0.060626,-0.462061,3.511179,-47.821014,,,,,,,
1504282291.065612,0.132593,0.025779,-0.240784,0.334259,0.036104,-0.035798,0.132161,-0.025777,-0.990893,-0.066197,-0.017284,-0.037885,-0.462061,3.511179,-47.821014,,,,,,,
1504282291.075621,0.132685,0.030768,-0.242126,0.574240,0.004327,-0.070550,0.132233,-0.030763,-0.990741,-0.057465,0.016969,-0.016705,-0.462061,3.511179,-47.821014,,,,,,,
1504282291.085631,0.132928,0.037888,-0.243815,0.764330,0.023013,-0.075591,0.132442,-0.037879,-0.990467,-0.021205,0.071555,-0.025387,1.262396,3.594386,-48.042328,,,,,,,
1504282291.095641,0.133067,0.045797,-0.245928,0.826240,0.001233,-0.116007,0.132536,-0.045781,-0.990120,-0.071501,0.070439,-0.064460,1.262396,3.594386,-48.042328,,,,,,,
1504282291.105651,0.133255,0.054177,-0.248645,0.887363,0.007178,-0.168214,0.132666,-0.054151,-0.989680,-0.045478,0.048413,-0.164616,2.162909,3.298731,-48.187897,,,,,,,
1504282291.115660,0.133099,0.063850,-0.251794,1.043864,-0.048435,-0.189193,0.132436,-0.063807,-0.989136,-0.054509,0.020304,-0.198013,3.064383,2.628077,-48.330597,,,,,,,
1504282291.125670,0.132170,0.075381,-0.255394,1.238425,-0.146986,-0.208962,0.131411,-0.075310,-0.988463,-0.065386,-0.012642,-0.143113,3.064383,2.628077,-48.330597,,,,,,,
1504282291.135680,0.130583,0.088655,-0.259575,1.413107,-0.209122,-0.249111,0.129701,-0.088539,-0.987592,-0.039704,-0.013420,-0.117648,3.064383,2.628077,-48.330597,,,,,,,
1504282291.145690,0.128632,0.103483,-0.264376,1.572997,-0.255149,-0.292517,0.127591,-0.103299,-0.986433,-0.028714,0.020093,-0.140291,3.590918,1.880885,-48.548676,,,,,,,
1504282291.155699,0.126810,0.119883,-0.269923,1.736740,-0.230859,-0.354185,0.125563,-0.119596,-0.984851,-0.043516,0.054274,-0.160093,3.590918,1.880885,-48.548676,,,,,,,
1504282291.165709,0.125622,0.137391,-0.276139,1.836602,-0.180484,-0.401067,0.124111,-0.136959,-0.982771,-0.065670,0.079555,-0.214754,3.519079,0.530833,-48.688721,,,,,,,
1504282291.175719,0.124511,0.155227,-0.282668,1.839724,-0.204994,-0.424501,0.122696,-0.154604,-0.980328,-0.067170,0.073122,-0.265354,3.519079,0.530833,-48.688721,,,,,,,
1504282291.185729,0.123446,0.172289,-0.289333,1.739459,-0.216930,-0.449204,0.121309,-0.171438,-0.977698,-0.069552,0.033453,-0.281015,3.671377,-0.518041,-48.905487,,,,,,,
1504282291.195739,0.122186,0.187319,-0.296044,1.507730,-0.259747,-0.477282,0.119750,-0.186225,-0.975182,-0.051147,0.000938,-0.303718,3.671377,-0.518041,-48.905487,,,,,,,
1504282291.205748,0.120130,0.199124,-0.302313,1.146381,-0.339905,-0.460689,0.117473,-0.197811,-0.973176,-0.022381,-0.033574,-0.244262,3.225348,-2.095083,-48.894745,,,,,,,
1504282291.215758,0.118006,0.208100,-0.307841,0.922321,-0.317851,-0.424824,0.115192,-0.206602,-0.971621,-0.016834,-0.090640,-0.126661,3.225348,-2.095083,-48.894745,,,,,,,
1504282291.225768,0.116620,0.217593,-0.313546,1.057506,-0.241146,-0.452478,0.113612,-0.215880,-0.969788,-0.012004,-0.089616,-0.023636,3.153128,-3.295125,-49.035919,,,,,,,
1504282291.235778,0.115951,0.228896,-0.319744,1.234043,-0.191432,-0.471473,0.112674,-0.226902,-0.967378,0.004498,0.112141,0.090608,3.153128,-3.295125,-49.035919,,,,,,,
1504282291.245757,0.115938,0.241482,-0.326019,1.331326,-0.152830,-0.447889,0.112322,-0.239142,-0.964466,0.034605,0.222571,0.227223,2.854986,-4.121175,-49.180481,,,,,,,
1504282291.255767,0.115876,0.254036,-0.331717,1.296843,-0.156873,-0.386032,0.111906,-0.251312,-0.961415,0.032778,0.228866,0.256200,2.854986,-4.121175,-49.180481,,,,,,,
1504282291.265776,0.115136,0.265741,-0.336853,1.187344,-0.218878,-0.350889,0.110849,-0.262624,-0.958510,0.030401,0.199285,0.193571,2.782797,-5.246511,-49.172211,,,,,,,
1504282291.275786,0.113976,0.276181,-0.341530,1.058965,-0.242362,-0.319048,0.109420,-0.272683,-0.955861,0.057206,0.174951,0.100622,2.560247,-6.222524,-49.165436,,,,,,,
1504282291.285796,0.112686,0.285935,-0.345785,1.006494,-0.248354,-0.290308,0.107882,-0.282054,-0.953314,0.063352,0.204433,0.046453,2.560247,-6.222524,-49.165436,,,,,,,
1504282291.295806,0.111663,0.295670,-0.349920,1.016430,-0.202621,-0.283967,0.106596,-0.291381,-0.950649,0.052447,0.213805,0.040356,2.560247,-6.222524,-49.165436,,,,,,,
1504282291.305815,0.111011,0.305368,-0.353974,1.013250,-0.191952,-0.271183,0.105658,-0.300644,-0.947866,0.051187,0.201843,0.041311,2.263006,-7.274023,-49.083282,,,,,,,
1504282291.315825,0.110198,0.314554,-0.357942,0.924629,-0.200811,-0.272388,0.104579,-0.309393,-0.945166,0.053715,0.173315,0.037513,2.189734,-7.874654,-48.928986,,,,,,,
1504282291.325835,0.109649,0.322621,-0.361882,0.828947,-0.168038,-0.288622,0.103783,-0.317053,-0.942712,0.058387,0.094931,0.008111,2.189734,-7.874654,-48.928986,,,,,,,
1504282291.335845,0.109261,0.330340,-0.365846,0.800186,-0.163537,-0.290815,0.103148,-0.324364,-0.940292,0.038484,0.011269,0.003478,1.966024,-8.475363,-49.075012,,,,,,,
1504282291.345855,0.109056,0.338488,-0.369916,0.805385,-0.181692,-0.291842,0.102664,-0.332061,-0.937654,0.026562,-0.038697,0.030351,1.966024,-8.475363,-49.075012,,,,,,,
1504282291.355864,0.108560,0.346195,-0.373917,0.806455,-0.180636,-0.290774,0.101918,-0.339321,-0.935133,0.031993,-0.073994,0.036146,1.892523,-9.075705,-49.070709,,,,,,,
1504282291.365874,0.108222,0.354254,-0.377978,0.854587,-0.168241,-0.294982,0.101304,-0.346890,-0.932419,0.033263,-0.076831,0.029495,1.892523,-9.075705,-49.070709,,,,,,,
1504282291.375884,0.108053,0.362659,-0.382255,0.881366,-0.166311,-0.313085,0.100829,-0.354761,-0.929504,0.011842,-0.052526,0.026581,1.669897,-9.976873,-48.989532,,,,,,,
1504282291.385894,0.107931,0.370939,-0.386694,0.837627,-0.174461,-0.327023,0.100395,-0.362490,-0.926564,0.000114,-0.017133,0.021810,1.669897,-9.976873,-48.989532,,,,,,,
1504282291.395903,0.107959,0.378605,-0.391269,0.799435,-0.159208,-0.346329,0.100118,-0.369624,-0.923772,-0.021719,-0.022496,0.007481,1.521826,-10.652853,-48.834839,,,,,,,
1504282291.405913,0.108401,0.385692,-0.395817,0.734561,-0.127780,-0.337958,0.100241,-0.376200,-0.921100,-0.032035,-0.006353,-0.008130,1.521826,-10.652853,-48.834839,,,,,,,
1504282291.415923,0.108665,0.392277,-0.400102,0.685304,-0.138051,-0.318812,0.100214,-0.382294,-0.918591,-0.027597,0.022354,0.001827,1.299093,-11.553869,-48.828644,,,,,,,
1504282291.425933,0.108840,0.398526,-0.404261,0.654144,-0.160180,-0.310288,0.100112,-0.388060,-0.916181,-0.008193,0.025328,0.017941,1.299093,-11.553869,-48.828644,,,,,,,
1504282291.435942,0.108500,0.404803,-0.408370,0.674029,-0.207233,-0.308035,0.099536,-0.393838,-0.913775,0.009152,0.017800,0.026659,1.449469,-11.703192,-48.827148,,,,,,,
1504282291.445952,0.107906,0.411426,-0.412841,0.707014,-0.243693,-0.348475,0.098710,-0.399917,-0.911220,0.012680,-0.013962,0.033459,1.449469,-11.703192,-48.827148,,,,,,,
1504282291.455962,0.107220,0.417922,-0.417651,0.688778,-0.271223,-0.373009,0.097804,-0.405863,-0.908686,0.011098,-0.046057,0.019281,1.226645,-12.529348,-48.746490,,,,,,,
1504282291.465941,0.106194,0.424495,-0.422683,0.709795,-0.321462,-0.388895,0.096587,-0.411861,-0.906113,-0.002166,-0.031361,0.004899,1.226645,-12.529348,-48.746490,,,,,,,
1504282291.475951,0.105063,0.431457,-0.427908,0.752431,-0.334587,-0.401606,0.095259,-0.418194,-0.903349,-0.026152,-0.014041,0.006697,0.853537,-13.056784,-48.368469,,,,,,,
1504282291.485961,0.103883,0.438753,-0.433284,0.777976,-0.347576,-0.410078,0.093874,-0.424811,-0.900402,-0.028627,0.001929,0.021770,0.853537,-13.056784,-48.368469,,,,,,,
1504282291.495970,0.102789,0.446055,-0.438843,0.774852,-0.348598,-0.427160,0.092569,-0.431410,-0.897394,-0.023614,0.029860,0.020594,0.779181,-13.356985,-48.441406,,,,,,,
1504282291.505980,0.102094,0.453442,-0.444744,0.807193,-0.327518,-0.460231,0.091618,-0.438062,-0.894264,-0.015171,0.031705,0.002174,0.779181,-13.356985,-48.441406,,,,,,,
1504282291.515990,0.101383,0.461412,-0.450888,0.859342,-0.349251,-0.468642,0.090625,-0.445212,-0.890827,-0.006198,0.024146,-0.014126,0.181173,-14.109823,-48.362244,,,,,,,
1504282291.526000,0.100505,0.469636,-0.457173,0.871996,-0.373854,-0.478183,0.089473,-0.452562,-0.887233,-0.023662,0.022844,-0.033528,0.181173,-14.109823,-48.362244,,,,,,,
1504282291.536010,0.099426,0.477451,-0.463471,0.821581,-0.407538,-0.478211,0.088161,-0.459517,-0.883783,-0.026653,0.010100,-0.060462,-0.116404,-14.936621,-48.131805,,,,,,,
1504282291.546019,0.097989,0.484447,-0.469520,0.725356,-0.420618,-0.459141,0.086575,-0.465719,-0.880687,-0.016567,0.005102,-0.089405,-0.116404,-14.936621,-48.131805,,,,,,,
1504282291.556029,0.096702,0.490464,-0.475382,0.633675,-0.409210,-0.456118,0.085169,-0.471035,-0.877993,-0.002207,-0.011707,-0.103254,-0.114115,-15.761923,-47.975616,,,,,,,
1504282291.566039,0.095397,0.495896,-0.481269,0.583570,-0.408789,-0.463677,0.083779,-0.475820,-0.875543,0.011055,0.027258,-0.084982,-0.114115,-15.761923,-47.975616,,,,,,,
1504282291.576027,0.093862,0.501377,-0.486638,0.596038,-0.412153,-0.401740,0.082188,-0.480634,-0.873061,0.023570,0.059125,-0.039933,-0.787333,-16.290564,-47.673309,,,,,,,
1504282291.586036,0.092362,0.506878,-0.491595,0.593798,-0.404709,-0.368668,0.080634,-0.485450,-0.870538,0.023797,0.033744,0.015481,-0.787333,-16.290564,-47.673309,,,,,,,
1504282291.596046,0.090012,0.512525,-0.496209,0.609132,-0.473059,-0.343971,0.078341,-0.490380,-0.867981,0.051054,0.054039,0.036972,-0.861780,-16.515905,-47.671814,,,,,,,
1504282291.606056,0.087561,0.518605,-0.500532,0.647550,-0.445700,-0.309819,0.075951,-0.495669,-0.865184,0.106056,0.084002,0.026912,-0.861780,-16.515905,-47.671814,,,,,,,
1504282291.616066,0.085178,0.525608,-0.504530,0.744570,-0.435874,-0.279781,0.073591,-0.501739,-0.861883,0.095339,0.050399,0.029104,-1.310068,-17.192923,-47.667847,,,,,,,
1504282291.626075,0.082901,0.532427,-0.508367,0.695522,-0.422698,-0.264946,0.071344,-0.507626,-0.858618,0.081000,0.083417,0.054587,-1.310068,-17.192923,-47.667847,,,,,,,
1504282291.636085,0.081009,0.539277,-0.512072,0.723737,-0.363257,-0.265002,0.069436,-0.513515,-0.855266,0.075919,0.091671,0.042919,-1.683451,-17.794760,-47.589264,,,,,,,
1504282291.646095,0.079684,0.545907,-0.515911,0.654811,-0.316857,-0.275877,0.068031,-0.519193,-0.851945,0.031152,0.079862,0.024796,-1.683451,-17.794760,-47.589264,,,,,,,
1504282291.656105,0.079219,0.551371,-0.519645,0.547761,-0.225403,-0.271954,0.067409,-0.523856,-0.849136,0.006276,0.082373,0.004821,-1.907206,-18.021673,-47.138123,,,,,,,
1504282291.666114,0.077701,0.552982,-0.522350,0.466051,-0.159747,-0.261536,0.066054,-0.525227,-0.848394,-0.030272,0.070027,-0.028772,-1.907206,-18.021673,-47.138123,,,,,,,
1504282291.676124,0.077998,0.556888,-0.525534,0.379725,-0.129230,-0.231852,0.066146,-0.528547,-0.846323,-0.021956,0.085294,-0.021368,-2.355097,-18.773993,-46.983612,,,,,,,
1504282291.686103,0.078374,0.559710,-0.528352,0.281660,-0.105000,-0.211784,0.066347,-0.530940,-0.844808,-0.022158,0.087688,-0.022883,-2.355097,-18.773993,-46.983612,,,,,,,
1504282291.696113,0.078987,0.562157,-0.531186,0.257370,-0.082407,-0.225743,0.066762,-0.533013,-0.843469,-0.027288,0.094414,-0.018195,-2.729181,-19.001135,-46.757843,,,,,,,
1504282291.706123,0.079195,0.558365,-0.533814,0.250336,-0.037566,-0.252518,0.067097,-0.529800,-0.845464,-0.012196,0.099716,0.015676,-2.729181,-19.001135,-46.757843,,,,,,,
1504282291.716133,0.081038,0.560583,-0.537199,0.239182,0.023285,-0.271858,0.068560,-0.531680,-0.844166,-0.025561,0.094454,0.051441,-2.728968,-19.225683,-46.981140,,,,,,,
1504282291.726143,0.083384,0.562356,-0.540561,0.195600,0.050273,-0.261307,0.070461,-0.533181,-0.843062,-0.064709,0.052895,0.060881,-2.728968,-19.225683,-46.981140,,,,,,,
1504282291.736152,0.084825,0.564056,-0.543345,0.182978,-0.025339,-0.204623,0.071599,-0.534619,-0.842055,-0.071248,-0.005481,0.055083,-2.653330,-19.300940,-46.680420,,,,,,,
1504282291.746162,0.084972,0.565518,-0.545556,0.139339,-0.120925,-0.165036,0.071657,-0.535854,-0.841265,-0.068758,-0.074116,0.010408,-2.653330,-19.300940,-46.680420,,,,,,,
1504282291.756172,0.079184,0.569614,-0.544445,0.030084,-0.154201,-0.126736,0.066612,-0.539307,-0.839470,-0.057106,-0.082275,-0.046257,-2.427576,-19.599936,-46.677612,,,,,,,
1504282291.766182,0.078804,0.568381,-0.545265,-0.130703,-0.073025,-0.060979,0.066345,-0.538269,-0.840158,-0.050461,-0.034165,-0.075614,-2.427576,-19.599936,-46.677612,,,,,,,
1504282291.776191,0.077744,0.566847,-0.545225,-0.151612,-0.110220,0.007365,0.065519,-0.536975,-0.841050,-0.027890,0.025150,-0.062789,-2.577494,-19.675467,-46.752411,,,,,,,
1504282291.786201,0.076248,0.565607,-0.544478,-0.112430,-0.108476,0.069339,0.064311,-0.535929,-0.841810,0.019932,0.052317,-0.020479,-2.577494,-19.675467,-46.752411,,,,,,,
1504282291.796211,0.073277,0.566920,-0.543286,0.305658,-0.361325,0.122812,0.061758,-0.537036,-0.841295,0.055811,0.056613,0.026919,-2.353403,-19.448996,-46.978546,,,,,,,
1504282291.806221,0.069280,0.567866,-0.541384,-0.018814,-0.214843,0.167890,0.058360,-0.537835,-0.841028,0.072423,0.070778,0.068979,-2.353403,-19.448996,-46.978546,,,,,,,
1504282291.816230,0.074059,0.565180,-0.543567,0.062278,-0.209069,0.171214,0.062485,-0.535568,-0.842177,0.088180,0.053573,0.015548,-2.952158,-19.677603,-46.528351,,,,,,,
1504282291.826240,0.069902,0.566279,-0.541629,0.081659,-0.321116,0.170378,0.058942,-0.536495,-0.841842,0.067309,0.045498,-0.010880,-2.952158,-19.677603,-46.528351,,,,,,,
1504282291.836250,0.065730,0.567469,-0.540117,0.096740,-0.335039,0.119193,0.055388,-0.537499,-0.841443,0.070863,0.046502,-0.011279,-3.403055,-19.454168,-46.756134,,,,,,,
1504282291.846260,0.061738,0.568169,-0.539578,0.060439,-0.395384,0.027440,0.052005,-0.538090,-0.841282,0.047329,0.026157,-0.039196,-3.403055,-19.454168,-46.756134,,,,,,,
1504282291.856270,0.062365,0.565412,-0.542142,0.029467,-0.411054,0.002858,0.052625,-0.535764,-0.842726,0.069842,0.023740,-0.047838,-3.777185,-19.756002,-46.679810,,,,,,,
1504282291.866279,0.059004,0.565896,-0.542664,0.057908,-0.357950,-0.052691,0.049777,-0.536172,-0.842640,0.067823,-0.000678,-0.031643,-3.777185,-19.756002,-46.679810,,,,,,,
1504282291.876289,0.056676,0.566810,-0.543974,0.114355,-0.283745,-0.127442,0.047787,-0.536944,-0.842264,-0.003628,-0.046980,0.036432,-4.002253,-19.682165,-46.605927,,,,,,,
1504282291.886299,0.056114,0.567585,-0.546291,0.073184,-0.140540,-0.200349,0.047290,-0.537597,-0.841875,-0.017871,-0.089676,0.096986,-4.002253,-19.682165,-46.605927,,,,,,,
1504282291.896309,0.054673,0.577656,-0.547481,0.060999,0.039654,-0.231638,0.045780,-0.546061,-0.836493,-0.039630,-0.087026,0.106543,-4.301996,-19.833364,-46.680542,,,,,,,
1504282291.906288,0.057677,0.577871,-0.550404,0.021491,0.162535,-0.242597,0.048285,-0.546242,-0.836235,-0.126608,-0.098457,0.121956,-4.301996,-19.833364,-46.680542,,,,,,,
1504282291.916298,0.061461,0.577128,-0.553308,-0.087722,0.242298,-0.251466,0.051474,-0.545619,-0.836451,-0.151755,-0.105504,0.109995,-4.301874,-19.833517,-46.605530,,,,,,,
1504282291.926307,0.066139,0.575348,-0.556336,-0.183019,0.321956,-0.269917,0.055450,-0.544127,-0.837169,-0.153671,-0.118090,0.030574,-4.301874,-19.833517,-46.605530,,,,,,,
1504282291.936317,0.071693,0.572681,-0.559510,-0.269738,0.406872,-0.288363,0.060203,-0.541887,-0.838292,-0.161017,-0.108946,-0.020945,-3.627527,-19.530630,-46.531128,,,,,,,
1504282291.946327,0.078502,0.569101,-0.562779,-0.358265,0.534423,-0.303685,0.066061,-0.538875,-0.839792,-0.176581,-0.101079,-0.021094,-3.627527,-19.530630,-46.531128,,,,,,,
1504282291.956337,0.086381,0.564969,-0.566005,-0.396923,0.638103,-0.301800,0.072867,-0.535389,-0.841456,-0.181128,-0.106884,-0.025518,-3.178354,-19.153753,-46.457825,,,,,,,
1504282291.966346,0.095217,0.560448,-0.568954,-0.440874,0.755664,-0.286073,0.080529,-0.531566,-0.843180,-0.165429,-0.117985,-0.026250,-3.178354,-19.153753,-46.457825,,,,,,,
1504282291.976356,0.105044,0.555613,-0.571656,-0.463581,0.861329,-0.270287,0.089079,-0.527464,-0.844894,-0.160871,-0.136720,-0.019684,-2.729563,-18.851126,-46.758972,,,,,,,
1504282291.986366,0.115539,0.550369,-0.574053,-0.508900,0.940542,-0.255562,0.098259,-0.523002,-0.846649,-0.170921,-0.128243,-0.016098,-2.729563,-18.851126,-46.758972,,,,,,,
