timestamp(unix),attitude_roll(radians),attitude_pitch(radians),attitude_yaw(radians),rotation_rate_x(radians/s),rotation_rate_y(radians/s),rotation_rate_z(radians/s),gravity_x(G),gravity_y(G),gravity_z(G),user_acc_x(G),user_acc_y(G),user_acc_z(G),magnetic_field_x(microteslas),magnetic_field_y(microteslas),magnetic_field_z(microteslas),latitude(degree),longitude(degree),altitude(meter),speed(m/s),course(degree),timestamp(unix),User Mark
1504280158.341244,-0.015727,0.319216,3.035243,0.057626,-0.081065,-0.014203,-0.014932,-0.313822,-0.949364,0.015512,-0.048055,0.012932,-21.879141,-11.949594,-39.920227,,,,,,,
1504280158.351253,-0.017448,0.320337,3.034835,0.127157,-0.213736,-0.049072,-0.016560,-0.314887,-0.948985,0.024250,-0.047372,0.012645,-21.654303,-11.798883,-39.770813,,,,,,,
1504280158.361263,-0.019868,0.321891,3.034163,0.164118,-0.274757,-0.070249,-0.018846,-0.316361,-0.948452,0.025240,-0.046829,0.015377,-21.654303,-11.798883,-39.770813,,,,,,,
1504280158.371273,-0.022401,0.323613,3.033410,0.168433,-0.271592,-0.074517,-0.021236,-0.317994,-0.947855,0.017147,-0.049529,0.018640,-22.028387,-12.250269,-39.918335,,,,,,,
1504280158.381283,-0.024553,0.326681,3.032746,0.143220,-0.218110,-0.065045,-0.023252,-0.320901,-0.946827,0.005232,-0.053031,0.017720,-22.028387,-12.250269,-39.918335,,,,,,,
1504280158.391292,-0.025956,0.327826,3.032251,0.103254,-0.132555,-0.043917,-0.024571,-0.321986,-0.946426,-0.002147,-0.058492,0.016601,-22.103842,-12.025751,-39.845245,,,,,,,
1504280158.401302,-0.026445,0.328583,3.032009,0.065529,-0.031038,-0.018544,-0.025027,-0.322702,-0.946170,-0.006299,-0.061087,0.013888,-22.103842,-12.025751,-39.845245,,,,,,,
1504280158.411312,-0.026030,0.328920,3.031933,0.024568,0.058795,-0.004897,-0.024632,-0.323021,-0.946071,-0.009456,-0.058754,0.015209,-22.253119,-12.176874,-39.619476,,,,,,,
1504280158.421322,-0.025402,0.330404,3.032034,0.001449,0.104805,0.000324,-0.024026,-0.324426,-0.945606,-0.005485,-0.051246,0.012241,-22.253119,-12.176874,-39.619476,,,,,,,
1504280158.431301,-0.024326,0.330369,3.032099,-0.002825,0.108031,0.006715,-0.023008,-0.324392,-0.945643,0.002302,-0.043817,0.008097,-22.028616,-12.025721,-39.695038,,,,,,,
1504280158.441311,-0.023535,0.330412,3.032171,0.008618,0.070642,0.005733,-0.022260,-0.324433,-0.945647,0.010084,-0.039367,0.008742,-22.028616,-12.025721,-39.695038,,,,,,,
1504280158.451321,-0.023240,0.330633,3.032205,0.028475,0.016137,0.001594,-0.021980,-0.324642,-0.945581,0.017173,-0.036076,0.010904,-21.953466,-11.950830,-39.470428,,,,,,,
1504280158.461330,-0.022623,0.332059,3.031923,0.052634,-0.035207,-0.002550,-0.021385,-0.325991,-0.945131,0.023750,-0.033323,0.013933,-21.953466,-11.950830,-39.470428,,,,,,,
1504280158.471340,-0.023280,0.332781,3.031920,0.077918,-0.074843,-0.001369,-0.022001,-0.326673,-0.944881,0.027082,-0.031283,0.019314,-22.028799,-11.950708,-39.695587,,,,,,,
1504280158.481350,-0.024197,0.333646,3.031894,0.086313,-0.095155,-0.005588,-0.022860,-0.327490,-0.944578,0.026370,-0.032266,0.025724,-22.028799,-11.950708,-39.695587,,,,,,,
1504280158.491360,-0.024164,0.335566,3.031534,0.076859,-0.081218,-0.010972,-0.022814,-0.329304,-0.943949,0.025499,-0.033306,0.027933,-22.253729,-12.026575,-39.770599,,,,,,,
1504280158.501369,-0.023974,0.337324,3.031216,0.049490,-0.036236,-0.011103,-0.022621,-0.330963,-0.943373,0.019752,-0.036759,0.026579,-22.253729,-12.026575,-39.770599,,,,,,,
1504280158.511379,-0.023653,0.338788,3.031102,0.014657,0.017320,0.001550,-0.022307,-0.332344,-0.942894,0.011000,-0.038780,0.028634,-22.328009,-12.177362,-39.544647,,,,,,,
1504280158.521389,-0.023151,0.339990,3.031272,-0.013700,0.081477,0.016334,-0.021824,-0.333477,-0.942505,-0.000103,-0.042484,0.024613,-22.328009,-12.177362,-39.544647,,,,,,,
1504280158.531399,-0.022392,0.341049,3.031602,-0.022911,0.131636,0.020504,-0.021100,-0.334476,-0.942168,-0.008090,-0.043240,0.022033,-22.029181,-11.800714,-39.696716,,,,,,,
1504280158.541408,-0.021561,0.342091,3.031929,-0.018607,0.131610,0.015181,-0.020311,-0.335458,-0.941836,-0.010543,-0.040595,0.027102,-22.029181,-11.800714,-39.696716,,,,,,,
1504280158.551418,-0.020894,0.343130,3.032070,-0.010418,0.078281,0.001416,-0.019675,-0.336437,-0.941501,-0.004693,-0.037678,0.028399,-21.953924,-11.950235,-39.770416,,,,,,,
1504280158.561428,-0.020462,0.344315,3.031865,0.005229,0.016376,-0.024064,-0.019260,-0.337552,-0.941110,0.004001,-0.039447,0.028375,-21.953924,-11.950235,-39.770416,,,,,,,
1504280158.571438,-0.020196,0.345639,3.031368,0.017742,-0.030597,-0.038905,-0.019000,-0.338798,-0.940667,0.012652,-0.040108,0.029153,-22.253195,-12.102030,-39.545013,,,,,,,
1504280158.581448,-0.020243,0.347132,3.030856,0.033611,-0.048841,-0.038847,-0.019034,-0.340202,-0.940160,0.010870,-0.038887,0.033742,-22.253195,-12.102030,-39.545013,,,,,,,
1504280158.591457,-0.020337,0.348764,3.030482,0.049786,-0.023406,-0.030324,-0.019111,-0.341736,-0.939602,0.006035,-0.038818,0.031536,-21.953207,-12.100672,-39.544281,,,,,,,
1504280158.601467,-0.020323,0.350397,3.030324,0.045798,0.018175,-0.017593,-0.019087,-0.343271,-0.939043,-0.001238,-0.036459,0.035295,-21.953207,-12.100672,-39.544281,,,,,,,
1504280158.611477,-0.020123,0.351799,3.030247,0.021472,0.045016,-0.015544,-0.018889,-0.344587,-0.938564,-0.004792,-0.035632,0.035442,-22.178473,-12.176096,-39.844299,,,,,,,
1504280158.621487,-0.019680,0.352823,3.030084,-0.012553,0.053832,-0.023088,-0.018466,-0.345548,-0.938219,-0.002850,-0.037020,0.029818,-22.178473,-12.176096,-39.844299,,,,,,,
1504280158.631496,-0.019035,0.353534,3.029763,-0.041292,0.055146,-0.032745,-0.017856,-0.346215,-0.937985,0.001240,-0.038504,0.027066,-22.102118,-12.401804,-39.317383,,,,,,,
1504280158.641506,-0.018372,0.353938,3.029317,-0.063836,0.034026,-0.037017,-0.017232,-0.346595,-0.937857,0.005971,-0.035745,0.028540,-22.102118,-12.401804,-39.317383,,,,,,,
1504280158.651516,-0.017752,0.354089,3.028801,-0.073552,0.018124,-0.038074,-0.016650,-0.346736,-0.937815,0.009982,-0.032063,0.025095,-21.878775,-11.875345,-39.545776,,,,,,,
1504280158.661526,-0.017174,0.354177,3.028314,-0.065062,0.014852,-0.032719,-0.016107,-0.346818,-0.937794,0.011178,-0.029112,0.022282,-21.878775,-11.875345,-39.545776,,,,,,,
1504280158.671535,-0.016602,0.354358,3.027912,-0.034140,0.017785,-0.023066,-0.015570,-0.346988,-0.937740,0.011511,-0.022580,0.019451,-22.178808,-11.951395,-39.695953,,,,,,,
1504280158.681545,-0.016107,0.354728,3.027680,-0.008572,0.019694,-0.011285,-0.015103,-0.347336,-0.937619,0.009305,-0.018097,0.019162,-22.178808,-11.951395,-39.695953,,,,,,,
1504280158.691524,-0.015783,0.355224,3.027535,0.007329,0.008903,-0.006970,-0.014797,-0.347800,-0.937452,0.006847,-0.014642,0.019498,-21.728048,-12.249369,-39.692596,,,,,,,
1504280158.701534,-0.015541,0.355703,3.027377,0.009400,-0.000702,-0.009086,-0.014567,-0.348250,-0.937289,0.007655,-0.014482,0.012408,-21.728048,-12.249369,-39.692596,,,,,,,
1504280158.711544,-0.015340,0.356178,3.027149,0.004084,-0.004910,-0.018695,-0.014376,-0.348695,-0.937126,0.007281,-0.017333,0.008171,-22.028845,-12.025415,-39.845062,,,,,,,
1504280158.721554,-0.015192,0.356512,3.026826,-0.010809,-0.005843,-0.028327,-0.014237,-0.349008,-0.937012,0.004593,-0.017066,0.008041,-22.028845,-12.025415,-39.845062,,,,,,,
1504280158.731563,-0.014991,0.356671,3.026463,-0.026747,0.000685,-0.030501,-0.014047,-0.349157,-0.936959,0.004129,-0.018626,0.003503,-22.028128,-12.175867,-39.618927,,,,,,,
1504280158.741573,-0.014782,0.356721,3.026184,-0.044766,0.018943,-0.024159,-0.013851,-0.349204,-0.936944,-0.000156,-0.022149,0.004388,-22.028128,-12.175867,-39.618927,,,,,,,
1504280158.751583,-0.014332,0.356736,3.026031,-0.052052,0.049892,-0.010350,-0.013429,-0.349217,-0.936945,-0.000655,-0.025111,0.004038,-22.027334,-12.401163,-39.467224,,,,,,,
1504280158.761593,-0.013638,0.356252,3.026084,-0.045530,0.077523,0.009894,-0.012781,-0.348764,-0.937123,-0.004751,-0.024130,0.004231,-22.027334,-12.401163,-39.467224,,,,,,,
1504280158.771603,-0.013119,0.356409,3.026387,-0.033862,0.078477,0.025925,-0.012294,-0.348911,-0.937075,-0.006596,-0.023586,0.007784,-21.803015,-12.174997,-39.543335,,,,,,,
1504280158.781612,-0.012622,0.356650,3.026682,-0.023362,0.056015,0.024917,-0.011828,-0.349137,-0.936997,-0.001295,-0.022491,0.009263,-21.803015,-12.174997,-39.543335,,,,,,,
1504280158.791622,-0.012251,0.356995,3.026796,-0.004322,0.024974,0.008993,-0.011479,-0.349461,-0.936881,0.003864,-0.020290,0.005545,-21.652716,-12.473734,-39.840759,,,,,,,
1504280158.801632,-0.011965,0.357534,3.026675,0.013691,-0.001797,-0.008009,-0.011208,-0.349965,-0.936696,0.008889,-0.020350,0.006383,-21.652716,-12.473734,-39.840759,,,,,,,
1504280158.811642,-0.011813,0.358119,3.026389,0.017879,-0.020997,-0.021845,-0.011064,-0.350513,-0.936493,0.009767,-0.017514,0.009246,-21.653357,-12.173883,-39.767975,,,,,,,
1504280158.821651,-0.011740,0.358684,3.026040,0.021064,-0.025282,-0.025036,-0.010992,-0.351042,-0.936295,0.010611,-0.017244,0.002076,-21.653357,-12.173883,-39.767975,,,,,,,
1504280158.831661,-0.011469,0.359222,3.025757,0.026561,0.001302,-0.014401,-0.010736,-0.351546,-0.936109,0.011270,-0.016542,-0.003100,-21.878469,-12.174738,-39.843567,,,,,,,
1504280158.841671,-0.010923,0.359727,3.025642,0.018284,0.041848,-0.000613,-0.010224,-0.352019,-0.935937,0.008789,-0.015611,-0.000785,-21.878469,-12.174738,-39.843567,,,,,,,
1504280158.851681,-0.010016,0.359976,3.025713,-0.007029,0.088926,0.016338,-0.009374,-0.352252,-0.935858,0.006933,-0.014707,-0.002222,-21.803473,-12.174402,-39.843353,,,,,,,
1504280158.861690,-0.008871,0.360072,3.025872,-0.014489,0.094308,0.023786,-0.008302,-0.352342,-0.935835,0.008134,-0.017135,-0.009066,-21.803473,-12.174402,-39.843353,,,,,,,
1504280158.871700,-0.008877,0.360916,3.025859,0.045218,-0.065988,-0.009986,-0.008305,-0.353131,-0.935537,0.008794,-0.018466,-0.001337,-21.803961,-12.024256,-39.919464,,,,,,,
1504280158.881710,-0.010219,0.362631,3.025203,0.034323,-0.254466,-0.050238,-0.009554,-0.354735,-0.934918,0.028276,-0.032335,0.094403,-21.803961,-12.024256,-39.919464,,,,,,,
1504280158.891720,-0.013054,0.363128,3.024467,0.052060,-0.318524,-0.072510,-0.012203,-0.355200,-0.934711,0.034999,-0.015802,0.051684,-21.653738,-12.023874,-39.769104,,,,,,,
1504280158.901729,-0.015764,0.363442,3.023712,0.016053,-0.280938,-0.066234,-0.014734,-0.355494,-0.934563,0.022409,-0.026220,0.079353,-21.653738,-12.023874,-39.769104,,,,,,,
1504280158.911739,-0.017457,0.363050,3.023278,-0.060924,-0.143946,-0.029250,-0.016319,-0.355127,-0.934676,0.009971,-0.007864,0.061140,-22.177374,-12.476542,-39.617035,,,,,,,
1504280158.921749,-0.017418,0.361999,3.023219,-0.169270,0.065777,-0.003121,-0.016289,-0.354144,-0.935049,-0.004097,-0.010541,0.025625,-22.177374,-12.476542,-39.617035,,,,,,,
1504280158.931759,-0.015474,0.359572,3.023247,-0.264048,0.229582,0.009235,-0.014484,-0.351873,-0.935936,-0.037747,-0.024851,-0.010887,-22.178915,-11.951242,-39.770966,,,,,,,
1504280158.941769,-0.012640,0.356500,3.023264,-0.314714,0.293942,0.002629,-0.011845,-0.348997,-0.937049,-0.045742,-0.019854,-0.024011,-22.178915,-11.951242,-39.770966,,,,,,,
1504280158.951748,-0.009639,0.353460,3.023108,-0.293303,0.291653,-0.015476,-0.009043,-0.346146,-0.938137,-0.039113,-0.019638,-0.035694,-21.879141,-11.949594,-39.920227,,,,,,,
1504280158.961758,-0.007456,0.350963,3.022951,-0.198502,0.257863,-0.038730,-0.007002,-0.343803,-0.939016,-0.033342,-0.003823,-0.046473,-21.879141,-11.949594,-39.920227,,,,,,,
1504280158.971767,-0.005154,0.349954,3.022387,-0.067709,0.192866,-0.054400,-0.004841,-0.342854,-0.939376,-0.034328,0.013936,-0.037980,-21.729895,-11.648920,-39.922119,,,,,,,
1504280158.981777,-0.003687,0.350192,3.021788,0.048932,0.101331,-0.056171,-0.003463,-0.343078,-0.939301,-0.031434,0.021713,-0.024139,-21.729895,-11.648920,-39.922119,,,,,,,
1504280158.991787,-0.003122,0.351276,3.021236,0.126116,0.017572,-0.049485,-0.002932,-0.344096,-0.938930,-0.031690,0.019496,-0.017323,-21.729940,-11.723612,-40.071533,,,,,,,
1504280159.001797,-0.003936,0.352559,3.021053,0.168325,-0.033936,-0.038642,-0.003694,-0.345301,-0.938485,-0.027983,0.014002,-0.011161,-21.729940,-11.723612,-40.071533,,,,,,,
1504280159.011806,-0.004237,0.354335,3.020723,0.176766,-0.040408,-0.030077,-0.003974,-0.346967,-0.937869,-0.027169,0.002713,-0.002088,-21.355047,-11.721781,-40.145630,,,,,,,
1504280159.021816,-0.004384,0.355973,3.020386,0.157737,-0.021066,-0.034413,-0.004110,-0.348503,-0.937299,-0.030101,-0.004021,0.009046,-21.355047,-11.721781,-40.145630,,,,,,,
1504280159.031826,-0.004265,0.357209,3.019921,0.111052,0.002776,-0.048412,-0.003995,-0.349660,-0.936868,-0.031848,-0.012965,0.017450,-21.579336,-11.873240,-39.920044,,,,,,,
1504280159.041836,-0.004623,0.358521,3.019551,0.058017,0.029873,-0.066692,-0.004329,-0.350890,-0.936407,-0.029805,-0.018846,0.018713,-21.579336,-11.873240,-39.920044,,,,,,,
1504280159.051845,-0.003854,0.358712,3.018724,0.004927,0.052703,-0.081767,-0.003609,-0.351068,-0.936343,-0.027717,-0.028906,0.020129,-21.353430,-12.097681,-39.692810,,,,,,,
1504280159.061855,-0.002877,0.358354,3.017740,-0.048255,0.065941,-0.093624,-0.002694,-0.350734,-0.936471,-0.023643,-0.036840,0.026468,-21.353430,-12.097681,-39.692810,,,,,,,
1504280159.071865,-0.001812,0.357597,3.016714,-0.081291,0.069412,-0.095823,-0.001698,-0.350024,-0.936739,-0.017620,-0.040632,0.022341,-21.202795,-12.396860,-39.765198,,,,,,,
1504280159.081875,-0.001260,0.357844,3.015816,-0.070657,0.061869,-0.098989,-0.001180,-0.350256,-0.936653,-0.016658,-0.039255,0.017662,-21.202795,-12.396860,-39.765198,,,,,,,
1504280159.091885,-0.000346,0.357522,3.014798,-0.016356,0.051825,-0.092473,-0.000324,-0.349954,-0.936767,-0.011364,-0.032081,0.020645,-21.653814,-12.173288,-40.067963,,,,,,,
1504280159.101894,0.000255,0.357825,3.013926,0.046264,0.019327,-0.078431,0.000239,-0.350238,-0.936661,-0.006114,-0.023266,0.022110,-21.653814,-12.173288,-40.067963,,,,,,,
1504280159.111904,0.000320,0.358637,3.013220,0.090592,-0.031138,-0.062254,0.000300,-0.350998,-0.936376,-0.002756,-0.014969,0.027242,-21.128592,-12.395472,-40.290009,,,,,,,
1504280159.121914,-0.000053,0.360248,3.012538,0.112586,-0.082469,-0.061058,-0.000049,-0.352507,-0.935809,0.004139,-0.013491,0.021808,-21.128592,-12.395472,-40.290009,,,,,,,
1504280159.131924,-0.000940,0.361384,3.011824,0.112311,-0.122949,-0.070594,-0.000880,-0.353569,-0.935408,0.009791,-0.014717,0.019926,-21.577978,-12.547800,-40.139984,,,,,,,
1504280159.141933,-0.002063,0.362343,3.010950,0.089785,-0.147257,-0.085534,-0.001929,-0.354466,-0.935067,0.014044,-0.015362,0.019402,-21.577978,-12.547800,-40.139984,,,,,,,
1504280159.151943,-0.003284,0.362971,3.010019,0.053454,-0.155480,-0.087717,-0.003070,-0.355053,-0.934841,0.015445,-0.016178,0.020107,-21.427649,-12.547571,-39.914612,,,,,,,
1504280159.161953,-0.003973,0.363781,3.008987,0.016110,-0.134941,-0.080267,-0.003713,-0.355810,-0.934551,0.015966,-0.017801,0.016201,-21.427649,-12.547571,-39.914612,,,,,,,
1504280159.171963,-0.004737,0.363665,3.008183,-0.019868,-0.093094,-0.072931,-0.004427,-0.355702,-0.934589,0.011996,-0.015636,0.017551,-21.578588,-12.173243,-39.917786,,,,,,,
1504280159.181972,-0.005040,0.363285,3.007468,-0.040865,-0.044977,-0.064513,-0.004711,-0.355347,-0.934723,0.011989,-0.016190,0.018173,-21.578588,-12.173243,-39.917786,,,,,,,
1504280159.191982,-0.005002,0.362913,3.006860,-0.035311,-0.010935,-0.053889,-0.004677,-0.354999,-0.934855,0.010795,-0.015973,0.019343,-21.802984,-12.324564,-39.767242,,,,,,,
1504280159.201992,-0.004559,0.363187,3.006311,-0.002181,0.004761,-0.038917,-0.004262,-0.355255,-0.934760,0.008855,-0.010010,0.016822,-21.802984,-12.324564,-39.767242,,,,,,,
1504280159.211971,-0.004196,0.363717,3.005915,0.036206,0.007633,-0.029250,-0.003922,-0.355750,-0.934573,0.005921,-0.004098,0.019152,-21.353125,-12.397089,-39.990570,,,,,,,
1504280159.221981,-0.003736,0.364376,3.005524,0.047955,0.009667,-0.028167,-0.003491,-0.356367,-0.934340,0.008832,-0.000826,0.020659,-21.353125,-12.397089,-39.990570,,,,,,,
1504280159.231991,-0.003056,0.365142,3.005041,0.060955,0.028750,-0.036720,-0.002854,-0.357082,-0.934069,0.011674,0.000484,0.017794,-21.577108,-12.623697,-39.689423,,,,,,,
1504280159.242000,-0.002061,0.365898,3.004421,0.059122,0.057552,-0.050652,-0.001925,-0.357788,-0.933801,0.010790,-0.000213,0.015328,-21.577108,-12.623697,-39.689423,,,,,,,
1504280159.252010,-0.000802,0.366655,3.003730,0.049678,0.075748,-0.052837,-0.000749,-0.358495,-0.933531,0.011354,-0.003337,0.018675,-21.576742,-12.773691,-39.688293,,,,,,,
1504280159.262020,0.000489,0.367395,3.003094,0.041123,0.076878,-0.046451,0.000457,-0.359186,-0.933266,0.010942,-0.005698,0.021019,-21.576742,-12.773691,-39.688293,,,,,,,
1504280159.272030,0.001574,0.368112,3.002523,0.026030,0.058885,-0.043245,0.001469,-0.359854,-0.933007,0.009319,-0.009805,0.023568,-21.501440,-12.848505,-39.612549,,,,,,,
1504280159.282040,0.002331,0.368755,3.002012,0.023652,0.031194,-0.037864,0.002175,-0.360455,-0.932774,0.008171,-0.010074,0.024602,-21.501440,-12.848505,-39.612549,,,,,,,
1504280159.292049,0.002995,0.369479,3.001496,0.049148,0.017133,-0.037797,0.002792,-0.361130,-0.932511,0.012497,-0.008392,0.013002,-21.351934,-12.697687,-39.688293,,,,,,,
1504280159.302065,0.003451,0.370514,3.000977,0.081081,0.004089,-0.043057,0.003217,-0.362095,-0.932136,0.008029,-0.005352,0.020728,-21.351934,-12.697687,-39.688293,,,,,,,
1504280159.312075,0.003965,0.371800,3.000331,0.099238,0.000752,-0.051560,0.003694,-0.363293,-0.931668,0.011702,-0.004246,0.026547,-21.352835,-12.472239,-39.914978,,,,,,,
1504280159.322085,0.004495,0.373175,2.999602,0.093821,-0.011986,-0.054751,0.004186,-0.364574,-0.931165,0.015925,-0.010014,0.021665,-21.352835,-12.472239,-39.914978,,,,,,,
1504280159.332094,0.004960,0.374395,2.998821,0.066020,-0.023471,-0.060118,0.004616,-0.365709,-0.930718,0.016929,-0.015715,0.019615,-21.576773,-12.848398,-39.837738,,,,,,,
1504280159.342104,0.005309,0.375415,2.998001,0.048814,-0.040378,-0.059053,0.004940,-0.366659,-0.930342,0.019780,-0.020701,0.010741,-21.576773,-12.848398,-39.837738,,,,,,,
1504280159.352114,0.005545,0.376474,2.997225,0.064797,-0.041577,-0.055824,0.005156,-0.367644,-0.929952,0.018358,-0.022401,0.002020,-21.276892,-12.846903,-39.911987,,,,,,,
1504280159.362124,0.005774,0.377739,2.996590,0.106519,-0.020620,-0.044049,0.005367,-0.368820,-0.929485,0.013142,-0.013901,0.003613,-21.276892,-12.846903,-39.911987,,,,,,,
1504280159.372133,0.006100,0.379324,2.996195,0.139732,0.008923,-0.023763,0.005666,-0.370293,-0.928898,0.007579,-0.008262,0.010181,-21.576361,-12.923700,-39.687164,,,,,,,
1504280159.382143,0.006614,0.381100,2.996091,0.153746,0.043944,0.003951,0.006140,-0.371942,-0.928236,0.005381,-0.008078,0.008939,-21.576361,-12.923700,-39.687164,,,,,,,
1504280159.392153,0.007378,0.382888,2.996263,0.132529,0.073931,0.028411,0.006844,-0.373601,-0.927564,0.007133,-0.013499,0.010129,-21.725637,-13.299067,-39.834747,,,,,,,
1504280159.402163,0.008293,0.384345,2.996587,0.069557,0.079764,0.043234,0.007688,-0.374952,-0.927012,0.011843,-0.025713,0.010020,-21.725637,-13.299067,-39.834747,,,,,,,
1504280159.412173,0.009330,0.384981,2.996907,-0.012634,0.075114,0.044165,0.008647,-0.375542,-0.926765,0.019353,-0.030861,-0.001976,-21.576056,-13.223093,-39.984924,,,,,,,
1504280159.422182,0.010406,0.384925,2.997052,-0.079897,0.058637,0.028064,0.009645,-0.375490,-0.926776,0.025634,-0.038145,-0.012143,-21.576056,-13.223093,-39.984924,,,,,,,
1504280159.432192,0.011476,0.384441,2.996955,-0.102328,0.042861,0.008836,0.010638,-0.375041,-0.926947,0.029996,-0.037069,-0.018075,-21.275946,-13.221903,-39.909180,,,,,,,
1504280159.442202,0.012413,0.383900,2.996816,-0.081033,0.036295,0.007814,0.011509,-0.374540,-0.927139,0.026913,-0.029284,-0.022232,-21.275946,-13.221903,-39.909180,,,,,,,
1504280159.452212,0.012952,0.383613,2.996932,-0.040744,0.018890,0.031395,0.012010,-0.374273,-0.927241,0.018721,-0.018290,-0.014745,-21.276205,-13.072046,-39.835327,,,,,,,
1504280159.462221,0.012957,0.383813,2.997532,0.031485,0.004400,0.073173,0.012014,-0.374458,-0.927166,0.008311,-0.009163,-0.014057,-21.276205,-13.072046,-39.835327,,,,,,,
1504280159.472231,0.012455,0.384576,2.998630,0.089901,-0.006774,0.108519,0.011545,-0.375166,-0.926886,-0.001535,-0.003817,-0.013910,-21.126364,-13.145929,-40.059357,,,,,,,
1504280159.482210,0.011566,0.385818,3.000023,0.130176,-0.028438,0.127841,0.010716,-0.376317,-0.926429,-0.006810,-0.001186,-0.006173,-21.126364,-13.145929,-40.059357,,,,,,,
1504280159.492220,0.010445,0.387290,3.001447,0.142779,-0.054116,0.126842,0.009671,-0.377681,-0.925885,-0.004651,-0.001897,-0.001986,-21.351431,-13.072092,-39.985504,,,,,,,
1504280159.502230,0.009273,0.388822,3.002656,0.136301,-0.076419,0.106589,0.008581,-0.379098,-0.925317,0.001719,-0.007758,-0.005103,-21.351431,-13.072092,-39.985504,,,,,,,
1504280159.512240,0.008068,0.390295,3.003523,0.109529,-0.107070,0.077777,0.007461,-0.380461,-0.924767,0.007432,-0.015626,-0.002296,-21.275717,-13.222193,-39.759186,,,,,,,
1504280159.522249,0.006783,0.391456,3.004032,0.067794,-0.139730,0.051076,0.006270,-0.381534,-0.924333,0.014620,-0.019787,-0.000487,-21.275717,-13.222193,-39.759186,,,,,,,
1504280159.532259,0.005462,0.392230,3.004229,0.027248,-0.156418,0.025415,0.005047,-0.382250,-0.924045,0.018284,-0.025602,-0.007351,-21.275793,-13.147348,-39.684723,,,,,,,
1504280159.542269,0.004166,0.392588,3.004205,-0.004626,-0.153999,0.002939,0.003849,-0.382581,-0.923914,0.015148,-0.024340,-0.013189,-21.275793,-13.147348,-39.684723,,,,,,,
1504280159.552279,0.002922,0.392584,3.004063,-0.023586,-0.133579,-0.013141,0.002700,-0.382577,-0.923920,0.007233,-0.017096,-0.014862,-21.500647,-13.073816,-39.460876,,,,,,,
1504280159.562288,0.001986,0.392360,3.003846,-0.026375,-0.088790,-0.023899,0.001835,-0.382370,-0.924008,0.000194,-0.010865,-0.019825,-21.500647,-13.073816,-39.460876,,,,,,,
1504280159.572298,0.001407,0.391993,3.003591,-0.032373,-0.042912,-0.031461,0.001301,-0.382031,-0.924149,-0.008075,-0.006077,-0.021545,-21.575567,-13.148996,-39.535461,,,,,,,
1504280159.582308,0.001065,0.391519,3.003310,-0.034243,-0.013056,-0.036852,0.000985,-0.381593,-0.924330,-0.014016,-0.001647,-0.021196,-21.575567,-13.148996,-39.535461,,,,,,,
1504280159.592318,0.000939,0.391120,3.003005,-0.012726,0.008080,-0.038985,0.000868,-0.381224,-0.924482,-0.015974,0.000090,-0.029268,-21.575979,-13.073694,-39.686035,,,,,,,
1504280159.602328,0.000902,0.390967,3.002626,0.027895,0.010953,-0.050660,0.000834,-0.381083,-0.924541,-0.017741,0.006357,-0.031270,-21.575979,-13.073694,-39.686035,,,,,,,
1504280159.612337,0.000936,0.391151,3.002004,0.053521,-0.000957,-0.074076,0.000866,-0.381253,-0.924470,-0.013881,0.009121,-0.021864,-21.726400,-12.999079,-39.836975,,,,,,,
1504280159.622347,0.000919,0.391558,3.001035,0.060906,-0.029759,-0.103899,0.000850,-0.381629,-0.924315,-0.009227,0.005912,-0.016160,-21.726400,-12.999079,-39.836975,,,,,,,
1504280159.632357,0.000860,0.392000,2.999664,0.043726,-0.062619,-0.134825,0.000795,-0.382038,-0.924146,-0.001741,-0.003796,-0.017351,-21.350943,-13.222239,-39.909363,,,,,,,
1504280159.642367,0.000703,0.392321,2.998070,0.019065,-0.085845,-0.147636,0.000650,-0.382334,-0.924024,0.002555,-0.010809,-0.017230,-21.350943,-13.222239,-39.909363,,,,,,,
1504280159.652376,0.000465,0.392529,2.996399,0.010453,-0.097492,-0.150833,0.000430,-0.382526,-0.923945,0.005231,-0.015347,-0.022055,-21.725302,-13.299524,-39.609741,,,,,,,
1504280159.662386,0.000188,0.392927,2.994841,0.043601,-0.081792,-0.140129,0.000173,-0.382894,-0.923792,0.000147,-0.014415,-0.024816,-21.725302,-13.299524,-39.609741,,,,,,,
1504280159.672396,0.000167,0.393762,2.993475,0.106633,-0.056761,-0.116582,0.000155,-0.383665,-0.923472,0.005201,-0.004748,-0.023335,-21.724966,-13.299967,-39.384735,,,,,,,
1504280159.682406,0.000113,0.395079,2.992381,0.164232,-0.044472,-0.094088,0.000104,-0.384881,-0.922966,-0.000272,0.009973,-0.007286,-21.724966,-13.299967,-39.384735,,,,,,,
1504280159.692415,0.000060,0.396876,2.991592,0.210019,-0.036356,-0.063069,0.000055,-0.386539,-0.922273,0.001517,0.013584,0.001024,-21.724890,-13.374826,-39.459167,,,,,,,
1504280159.702425,-0.000040,0.398997,2.991125,0.213141,-0.028951,-0.035324,-0.000037,-0.388494,-0.921451,0.001868,0.007208,0.006931,-21.724890,-13.374826,-39.459167,,,,,,,
1504280159.712435,-0.000132,0.401093,2.990856,0.187593,-0.013836,-0.022586,-0.000122,-0.390424,-0.920635,-0.000443,0.000944,0.015728,-21.874701,-13.450495,-39.458984,,,,,,,
1504280159.722445,0.000080,0.402917,2.990537,0.138663,0.002556,-0.025903,0.000074,-0.392103,-0.919921,0.006182,-0.006899,0.020538,-21.874701,-13.450495,-39.458984,,,,,,,
1504280159.732454,0.000627,0.404236,2.990073,0.071614,0.016972,-0.035652,0.000576,-0.393317,-0.919403,0.013004,-0.010614,0.031723,-21.574591,-13.449289,-39.383240,,,,,,,
1504280159.742434,0.001065,0.404463,2.989631,0.006669,0.030301,-0.042192,0.000979,-0.393525,-0.919313,0.020429,-0.016631,0.036699,-21.574591,-13.449289,-39.383240,,,,,,,
1504280159.752443,0.001670,0.404167,2.989183,-0.039075,0.047727,-0.041235,0.001536,-0.393253,-0.919429,0.024648,-0.021054,0.038585,-21.799170,-13.525614,-39.233185,,,,,,,
1504280159.762453,0.002539,0.403552,2.988775,-0.065520,0.078843,-0.037066,0.002335,-0.392688,-0.919669,0.026092,-0.020978,0.040961,-21.799170,-13.525614,-39.233185,,,,,,,
1504280159.772463,0.004077,0.403463,2.988260,-0.071822,0.095938,-0.028570,0.003750,-0.392605,-0.919699,0.021504,-0.018482,0.038474,-21.724249,-13.674677,-39.531891,,,,,,,
1504280159.782473,0.005095,0.402715,2.988005,-0.072980,0.088482,-0.022154,0.004687,-0.391918,-0.919988,0.015760,-0.011448,0.035039,-21.724249,-13.674677,-39.531891,,,,,,,
1504280159.792483,0.006021,0.402170,2.987815,-0.045294,0.085052,-0.016763,0.005541,-0.391417,-0.920197,0.012297,-0.004641,0.021698,-21.349707,-13.448130,-39.457703,,,,,,,
1504280159.802492,0.006966,0.402053,2.987651,-0.000466,0.087878,-0.015623,0.006410,-0.391308,-0.920237,0.009230,0.001294,0.014689,-21.349707,-13.448130,-39.457703,,,,,,,
1504280159.812502,0.007957,0.402416,2.987409,0.053875,0.076778,-0.018712,0.007322,-0.391643,-0.920088,0.004412,0.009379,0.015944,-21.799246,-13.675013,-39.532104,,,,,,,
1504280159.822512,0.008648,0.403326,2.987245,0.102765,0.057188,-0.012188,0.007954,-0.392480,-0.919726,0.002284,0.016931,0.011752,-21.799246,-13.675013,-39.532104,,,,,,,
1504280159.832522,0.008996,0.404663,2.987321,0.141890,0.031261,0.016745,0.008269,-0.393709,-0.919198,0.004838,0.018495,0.005548,-21.124258,-13.671976,-39.530426,,,,,,,
1504280159.842531,0.008946,0.406212,2.987779,0.157513,0.005522,0.052042,0.008217,-0.395132,-0.918587,0.001396,0.018759,0.003930,-21.124258,-13.671976,-39.530426,,,,,,,
1504280159.852541,0.008571,0.407511,2.988542,0.144506,-0.005052,0.075521,0.007869,-0.396325,-0.918076,-0.001171,0.013635,0.003205,-21.349142,-13.673136,-39.455994,,,,,,,
1504280159.862551,0.008227,0.408750,2.989354,0.115751,-0.000549,0.072261,0.007549,-0.397463,-0.917587,-0.004329,0.009020,0.000549,-21.349142,-13.673136,-39.455994,,,,,,,
1504280159.872561,0.007852,0.409684,2.990031,0.087081,0.003970,0.051923,0.007202,-0.398320,-0.917218,-0.007080,0.003193,0.003507,-21.274069,-13.747644,-39.530243,,,,,,,
1504280159.882570,0.007546,0.410458,2.990553,0.063678,0.005240,0.040140,0.006919,-0.399029,-0.916912,-0.007148,0.000073,0.007916,-21.274069,-13.747644,-39.530243,,,,,,,
1504280159.892580,0.007202,0.411253,2.991054,0.062587,0.002051,0.040145,0.006602,-0.399758,-0.916597,-0.008738,-0.002250,0.013856,-21.124563,-13.596827,-39.605988,,,,,,,
1504280159.902590,0.006718,0.412247,2.991674,0.083928,0.006130,0.046581,0.006155,-0.400669,-0.916202,-0.014700,-0.003246,0.017078,-21.124563,-13.596827,-39.605988,,,,,,,
1504280159.912600,0.006284,0.413476,2.992432,0.103223,0.025136,0.059391,0.005754,-0.401795,-0.915712,-0.017290,-0.002624,0.021058,-21.423193,-13.824228,-39.080017,,,,,,,
1504280159.922610,0.005945,0.414706,2.993392,0.101185,0.047511,0.076429,0.005441,-0.402921,-0.915219,-0.019677,0.000791,0.024182,-21.423193,-13.824228,-39.080017,,,,,,,
1504280159.932619,0.005702,0.415749,2.994547,0.077817,0.068999,0.090230,0.005216,-0.403875,-0.914799,-0.021955,0.002950,0.023411,-21.648428,-13.824930,-39.230591,,,,,,,
1504280159.942629,0.005577,0.416242,2.995762,0.029881,0.081109,0.094397,0.005101,-0.404326,-0.914601,-0.022847,0.003905,0.017002,-21.648428,-13.824930,-39.230591,,,,,,,
1504280159.952639,0.005523,0.416278,2.996981,-0.009683,0.072904,0.098615,0.005052,-0.404359,-0.914586,-0.018052,0.003190,0.010823,-21.572821,-13.974894,-39.079285,,,,,,,
1504280159.962649,0.005280,0.416090,2.998249,-0.028072,0.045341,0.105037,0.004829,-0.404187,-0.914663,-0.014549,0.001920,0.013617,-21.572821,-13.974894,-39.079285,,,,,,,
1504280159.972658,0.004662,0.415905,2.999503,-0.025179,0.004826,0.101913,0.004264,-0.404018,-0.914741,-0.014000,0.002544,0.017189,-21.574179,-13.524591,-39.232635,,,,,,,
1504280159.982668,0.003686,0.415877,3.000627,-0.011597,-0.040028,0.088141,0.003372,-0.403993,-0.914756,-0.012146,0.003816,0.024009,-21.574179,-13.524591,-39.232635,,,,,,,
1504280159.992678,0.002479,0.416018,3.001497,0.013864,-0.072183,0.065827,0.002268,-0.404121,-0.914703,-0.010233,0.007530,0.026046,-21.574514,-13.524149,-39.457672,,,,,,,
1504280160.002688,0.001100,0.416351,3.002224,0.044694,-0.092674,0.055244,0.001006,-0.404426,-0.914570,-0.009749,0.011527,0.019291,-21.574514,-13.524149,-39.457672,,,,,,,
1504280160.012667,-0.000474,0.416847,3.002955,0.059539,-0.103455,0.056358,-0.000434,-0.404880,-0.914370,-0.012567,0.014072,0.020464,-21.649282,-13.524790,-39.307831,,,,,,,
1504280160.022677,-0.002157,0.417258,3.003769,0.048851,-0.102309,0.061676,-0.001972,-0.405255,-0.914202,-0.015942,0.013959,0.015627,-21.649282,-13.524790,-39.307831,,,,,,,
1504280160.032686,-0.003806,0.417451,3.004669,0.030828,-0.085117,0.065886,-0.003479,-0.405432,-0.914119,-0.020248,0.011953,0.004771,-21.724890,-13.374826,-39.459167,,,,,,,
1504280160.042696,-0.005239,0.417348,3.005617,0.001142,-0.059304,0.068994,-0.004790,-0.405338,-0.914154,-0.022310,0.011554,0.001252,-21.724890,-13.374826,-39.459167,,,,,,,
1504280160.052706,-0.006399,0.416982,3.006508,-0.030632,-0.034529,0.061425,-0.005851,-0.405003,-0.914297,-0.021935,0.007313,0.000326,-21.798040,-13.975611,-39.229828,,,,,,,
1504280160.062716,-0.007310,0.416408,3.007266,-0.049588,-0.011983,0.047479,-0.006685,-0.404478,-0.914523,-0.023528,0.004652,-0.002789,-21.798040,-13.975611,-39.229828,,,,,,,
1504280160.072725,-0.007845,0.415860,3.007857,-0.041872,0.012471,0.036777,-0.007176,-0.403977,-0.914741,-0.020976,0.003022,-0.004113,-21.723684,-13.675425,-39.156860,,,,,,,
1504280160.082735,-0.008192,0.415547,3.008400,-0.011972,0.016484,0.037891,-0.007495,-0.403691,-0.914865,-0.017057,0.005833,-0.001395,-21.723684,-13.675425,-39.156860,,,,,,,
1504280160.092745,-0.008667,0.415593,3.009016,0.022032,0.003408,0.044379,-0.007929,-0.403732,-0.914843,-0.016836,0.006516,0.002520,-21.798986,-13.600611,-39.232635,,,,,,,
1504280160.102755,-0.009242,0.415945,3.009599,0.043215,-0.018077,0.041253,-0.008454,-0.404054,-0.914696,-0.013076,0.002672,0.001412,-21.798986,-13.600611,-39.232635,,,,,,,
1504280160.112765,-0.009943,0.416388,3.010056,0.043075,-0.041510,0.031688,-0.009093,-0.404460,-0.914511,-0.008836,0.000559,0.000845,-22.023840,-13.751322,-39.382080,,,,,,,
1504280160.122774,-0.010716,0.416793,3.010312,0.030196,-0.061633,0.014623,-0.009799,-0.404830,-0.914340,-0.005017,-0.003328,-0.000043,-22.023840,-13.751322,-39.382080,,,,,,,
1504280160.132784,-0.011502,0.417105,3.010424,0.019556,-0.064732,0.003937,-0.010516,-0.405115,-0.914205,-0.004590,-0.006429,-0.002741,-22.023764,-13.601923,-39.083191,,,,,,,
1504280160.142794,-0.012131,0.417359,3.010433,0.004770,-0.050750,-0.003585,-0.011090,-0.405347,-0.914095,-0.003940,-0.010271,0.000155,-22.023764,-13.601923,-39.083191,,,,,,,
1504280160.152804,-0.012499,0.417435,3.010375,-0.021615,-0.019623,-0.011157,-0.011426,-0.405417,-0.914061,-0.005588,-0.010446,0.005308,-21.798727,-13.750452,-39.306519,,,,,,,
1504280160.162813,-0.012462,0.417298,3.010274,-0.034115,0.027367,-0.018670,-0.011392,-0.405292,-0.914116,-0.009711,-0.009091,0.003594,-21.573690,-13.674753,-39.156494,,,,,,,
1504280160.172823,-0.012042,0.416838,3.010088,-0.068991,0.062828,-0.028398,-0.011010,-0.404872,-0.914307,-0.013358,-0.008260,0.003861,-21.573690,-13.674753,-39.156494,,,,,,,
1504280160.182833,-0.011270,0.416090,3.009775,-0.087946,0.088566,-0.037015,-0.010308,-0.404187,-0.914618,-0.012244,-0.007572,-0.001062,-21.573690,-13.674753,-39.156494,,,,,,,
1504280160.192843,-0.010257,0.415294,3.009405,-0.089949,0.103502,-0.039179,-0.009385,-0.403459,-0.914949,-0.009872,-0.009016,-0.002699,-21.649099,-13.599787,-39.307281,,,,,,,
1504280160.202852,-0.009161,0.414637,3.009017,-0.075060,0.098050,-0.038076,-0.008385,-0.402858,-0.915224,-0.004905,-0.007482,0.003939,-21.649099,-13.599787,-39.307281,,,,,,,
1504280160.212862,-0.008203,0.414282,3.008598,-0.037940,0.070038,-0.037962,-0.007509,-0.402533,-0.915375,-0.001005,-0.005167,0.006867,-21.724325,-13.599817,-39.457489,,,,,,,
1504280160.222872,-0.007573,0.414346,3.008148,0.012842,0.017404,-0.035647,-0.006932,-0.402592,-0.915353,0.007054,-0.000683,0.009531,-21.724325,-13.599817,-39.457489,,,,,,,
1504280160.232882,-0.007548,0.414898,3.007684,0.069849,-0.056594,-0.032217,-0.006908,-0.403096,-0.915132,0.013210,0.005879,0.013001,-21.499105,-13.599115,-39.306915,,,,,,,
1504280160.242891,-0.008162,0.415748,3.007225,0.100270,-0.120780,-0.030985,-0.007467,-0.403874,-0.914784,0.016775,0.012700,0.012272,-21.499105,-13.599115,-39.306915,,,,,,,
1504280160.252901,-0.009197,0.416689,3.006755,0.107427,-0.160263,-0.031971,-0.008410,-0.404735,-0.914395,0.018985,0.013622,0.008542,-21.349295,-13.523432,-39.307098,,,,,,,
1504280160.262911,-0.010450,0.417436,3.006272,0.086033,-0.169671,-0.036263,-0.009553,-0.405418,-0.914081,0.015611,0.012474,0.002338,-21.349295,-13.523432,-39.307098,,,,,,,
1504280160.272890,-0.011639,0.417931,3.005772,0.063818,-0.148170,-0.040609,-0.010637,-0.405870,-0.913869,0.010729,0.011644,-0.003367,-21.723532,-13.825129,-39.305786,,,,,,,
1504280160.282900,-0.012500,0.418300,3.005324,0.048210,-0.095831,-0.036459,-0.011422,-0.406208,-0.913709,0.004189,0.008030,-0.005312,-21.723532,-13.825129,-39.305786,,,,,,,
1504280160.292910,-0.013005,0.418576,3.005080,0.030422,-0.041357,-0.019507,-0.011882,-0.406460,-0.913592,-0.002370,0.005733,0.001879,-21.873037,-13.975946,-39.230011,,,,,,,
1504280160.302884,-0.013193,0.418729,3.005125,0.011538,0.012056,0.001714,-0.012052,-0.406600,-0.913527,-0.009478,0.003981,0.005843,-21.873037,-13.975946,-39.230011,,,,,,,
1504280160.312893,-0.013065,0.418815,3.005378,0.000053,0.052626,0.016568,-0.011935,-0.406678,-0.913494,-0.012769,-0.000015,0.009212,-22.022329,-14.127069,-39.004242,,,,,,,
1504280160.322903,-0.012648,0.418903,3.005675,-0.000814,0.078205,0.017589,-0.011554,-0.406759,-0.913463,-0.012112,-0.001139,0.012767,-21.873388,-13.975504,-39.455048,,,,,,,
1504280160.332913,-0.012132,0.419094,3.005864,0.010921,0.070660,0.005882,-0.011082,-0.406933,-0.913391,-0.010738,-0.000614,0.014282,-21.873388,-13.975504,-39.455048,,,,,,,
1504280160.342923,-0.011813,0.419423,3.005827,0.019216,0.029052,-0.012175,-0.010789,-0.407233,-0.913260,-0.006118,0.000464,0.021293,-21.873388,-13.975504,-39.455048,,,,,,,
1504280160.352932,-0.011790,0.419760,3.005576,0.016752,-0.020997,-0.025968,-0.010766,-0.407541,-0.913123,0.001367,-0.000647,0.017860,-21.947744,-14.051432,-39.154602,,,,,,,
1504280160.362942,-0.012099,0.419971,3.005192,0.001531,-0.061356,-0.033395,-0.011047,-0.407734,-0.913034,0.004410,-0.001919,0.015115,-21.798605,-13.750605,-39.231506,,,,,,,
1504280160.372952,-0.012663,0.419962,3.004733,-0.029551,-0.084534,-0.041948,-0.011563,-0.407726,-0.913031,0.003964,-0.006382,0.014777,-21.798605,-13.750605,-39.231506,,,,,,,
1504280160.382962,-0.013333,0.419669,3.004221,-0.061585,-0.090659,-0.046262,-0.012175,-0.407458,-0.913143,0.002639,-0.009809,0.012844,-21.797522,-14.051065,-39.004242,,,,,,,
1504280160.392971,-0.013867,0.419144,3.003673,-0.065687,-0.071442,-0.048438,-0.012667,-0.406979,-0.913350,0.002230,-0.007648,0.007390,-21.797522,-14.051065,-39.004242,,,,,,,
1504280160.402981,-0.014159,0.418720,3.003154,-0.055802,-0.036359,-0.048483,-0.012935,-0.406592,-0.913518,-0.002339,-0.006708,0.006506,-21.948614,-13.751276,-39.231873,,,,,,,
1504280160.412991,-0.014179,0.418550,3.002723,-0.017131,-0.000453,-0.043142,-0.012954,-0.406436,-0.913587,-0.006546,-0.001874,0.009306,-21.948614,-13.751276,-39.231873,,,,,,,
1504280160.423001,-0.013957,0.418635,3.002356,0.013999,0.025925,-0.038864,-0.012751,-0.406514,-0.913556,-0.008184,0.003773,0.009701,-21.948263,-13.751734,-39.006866,,,,,,,
1504280160.433011,-0.013639,0.418800,3.002049,0.025776,0.034346,-0.033521,-0.012460,-0.406664,-0.913493,-0.008979,0.008959,0.008311,-21.948263,-13.751734,-39.006866,,,,,,,
1504280160.443020,-0.013326,0.418866,3.001769,0.019242,0.022670,-0.026039,-0.012173,-0.406725,-0.913470,-0.004352,0.010347,0.000750,-21.872702,-13.976389,-39.005005,,,,,,,
1504280160.453030,-0.013100,0.418782,3.001523,0.002039,0.008955,-0.021775,-0.011968,-0.406648,-0.913507,0.000005,0.006990,-0.004981,-21.872702,-13.976389,-39.005005,,,,,,,
1504280160.463040,-0.012861,0.418554,3.001256,-0.012924,0.005882,-0.021796,-0.011751,-0.406440,-0.913602,0.003969,0.004981,-0.006701,-22.173422,-13.827295,-39.231873,,,,,,,
1504280160.473050,-0.012545,0.418341,3.000979,-0.015044,0.009095,-0.019671,-0.011463,-0.406245,-0.913692,0.006825,0.002269,-0.003788,-22.173422,-13.827295,-39.231873,,,,,,,
1504280160.483059,-0.012255,0.418176,3.000748,-0.020435,0.005937,-0.013271,-0.011198,-0.406094,-0.913763,0.007552,0.000714,0.004888,-22.023306,-13.826777,-39.156494,,,,,,,
1504280160.493069,-0.012123,0.418055,3.000557,-0.019484,-0.007924,-0.012178,-0.011079,-0.405984,-0.913813,0.006425,-0.000647,0.009867,-22.023306,-13.826777,-39.156494,,,,,,,
1504280160.503079,-0.012052,0.418007,3.000318,-0.010981,-0.015447,-0.017487,-0.011014,-0.405940,-0.913833,0.007505,-0.001973,0.007965,-21.573126,-13.899744,-39.154816,,,,,,,
1504280160.513089,-0.012102,0.418043,3.000075,-0.004718,-0.031484,-0.015314,-0.011059,-0.405973,-0.913818,0.008389,-0.001055,0.011291,-21.573126,-13.899744,-39.154816,,,,,,,
1504280160.523098,-0.012202,0.418112,2.999781,-0.004710,-0.034673,-0.021714,-0.011150,-0.406036,-0.913789,0.009014,-0.002412,0.009721,-22.023153,-13.976465,-39.305389,,,,,,,
1504280160.533108,-0.012206,0.418056,2.999448,-0.011018,-0.025026,-0.024944,-0.011154,-0.405985,-0.913812,0.007874,0.001703,0.007501,-22.023153,-13.976465,-39.305389,,,,,,,
1504280160.543087,-0.012177,0.417756,2.999101,-0.035548,-0.023757,-0.024990,-0.011130,-0.405710,-0.913934,0.008414,0.003824,0.008264,-22.022924,-13.976770,-39.155365,,,,,,,
1504280160.553097,-0.012190,0.417224,2.998795,-0.053709,-0.024676,-0.021818,-0.011144,-0.405225,-0.914149,0.007161,0.003079,0.002513,-22.022924,-13.976770,-39.155365,,,,,,,
1504280160.563107,-0.012157,0.416547,2.998485,-0.062175,-0.017144,-0.023981,-0.011117,-0.404605,-0.914424,0.006753,0.003482,-0.001241,-22.022818,-13.976923,-39.080383,,,,,,,
1504280160.573117,-0.012078,0.415834,2.998107,-0.067441,-0.013894,-0.032535,-0.011048,-0.403953,-0.914713,0.004838,0.004081,0.003336,-22.022818,-13.976923,-39.080383,,,,,,,
1504280160.583126,-0.011939,0.415154,2.997594,-0.067355,-0.011749,-0.046416,-0.010924,-0.403331,-0.914989,0.004134,0.001689,0.005413,-22.023794,-13.676615,-39.232635,,,,,,,
1504280160.593136,-0.011788,0.414620,2.997057,-0.044948,-0.010868,-0.045311,-0.010789,-0.402842,-0.915206,0.002961,0.001841,0.002486,-22.023794,-13.676615,-39.232635,,,,,,,
1504280160.603146,-0.011815,0.414465,2.996703,-0.003566,-0.026149,-0.023865,-0.010814,-0.402700,-0.915268,0.002879,0.002997,0.005585,-21.798605,-13.750605,-39.231506,,,,,,,
1504280160.613156,-0.012153,0.414744,2.996688,0.035603,-0.044620,0.008258,-0.011122,-0.402956,-0.915152,0.003157,0.004000,0.010199,-21.798605,-13.750605,-39.231506,,,,,,,
1504280160.623166,-0.012883,0.415260,2.996946,0.051247,-0.075674,0.030755,-0.011788,-0.403428,-0.914935,0.004402,0.004350,0.010867,-22.173941,-13.527597,-39.084137,,,,,,,
1504280160.633175,-0.013839,0.415817,2.997270,0.049985,-0.098044,0.033994,-0.012659,-0.403938,-0.914699,0.007593,0.003868,0.008388,-22.173941,-13.527597,-39.084137,,,,,,,
1504280160.643185,-0.014851,0.416040,2.997500,0.020053,-0.110574,0.025424,-0.013583,-0.404141,-0.914596,0.011020,0.003903,0.003341,-21.873266,-13.751398,-39.006683,,,,,,,
1504280160.653195,-0.015800,0.415944,2.997572,-0.022588,-0.113406,0.013613,-0.014452,-0.404053,-0.914621,0.014849,-0.000915,0.000894,-21.873266,-13.751398,-39.006683,,,,,,,
1504280160.663205,-0.016669,0.415440,2.997523,-0.064074,-0.104526,0.002850,-0.015250,-0.403593,-0.914812,0.013434,-0.003817,-0.001311,-22.248083,-13.828074,-39.007050,,,,,,,
1504280160.673214,-0.017387,0.414597,2.997464,-0.095931,-0.085083,0.003827,-0.015913,-0.402821,-0.915140,0.011229,-0.005855,-0.004202,-22.248083,-13.828074,-39.007050,,,,,,,
1504280160.683224,-0.017884,0.413532,2.997429,-0.110567,-0.048729,0.001603,-0.016376,-0.401846,-0.915561,0.004733,-0.004740,-0.005978,-22.398260,-13.753748,-39.007996,,,,,,,
1504280160.693234,-0.018011,0.412421,2.997490,-0.107003,0.001317,0.008992,-0.016500,-0.400828,-0.916005,0.000508,-0.002385,-0.005123,-22.398260,-13.753748,-39.007996,,,,,,,
1504280160.703244,-0.017756,0.411435,2.997640,-0.086390,0.048027,0.015350,-0.016274,-0.399925,-0.916403,-0.003563,-0.000420,-0.005670,-22.174139,-13.452585,-39.084686,,,,,,,
1504280160.713253,-0.017137,0.410644,2.997945,-0.064768,0.091524,0.028120,-0.015711,-0.399200,-0.916729,-0.005422,0.002136,-0.003956,-22.174139,-13.452585,-39.084686,,,,,,,
1504280160.723263,-0.016258,0.410112,2.998373,-0.032581,0.120020,0.037733,-0.014909,-0.398712,-0.916955,-0.007979,0.005478,-0.003745,-22.249166,-13.527628,-39.234314,,,,,,,
1504280160.733273,-0.015392,0.409831,2.998940,-0.013504,0.113453,0.052722,-0.014116,-0.398454,-0.917080,-0.005720,0.005098,-0.000996,-22.249166,-13.527628,-39.234314,,,,,,,
1504280160.743283,-0.014816,0.409767,2.999591,0.002087,0.068558,0.063502,-0.013589,-0.398396,-0.917113,0.001168,0.002995,0.000441,-22.023977,-13.601618,-39.233185,,,,,,,
1504280160.753293,-0.014743,0.409907,3.000256,0.014345,0.002388,0.066841,-0.013521,-0.398524,-0.917058,0.008883,-0.000005,0.004216,-22.023977,-13.601618,-39.233185,,,,,,,
1504280160.763302,-0.015225,0.410254,3.000820,0.026658,-0.063771,0.059506,-0.013961,-0.398842,-0.916913,0.015823,-0.003257,0.008374,-22.023077,-13.827066,-39.006500,,,,,,,
1504280160.773312,-0.016055,0.410658,3.001241,0.029661,-0.097877,0.044627,-0.014719,-0.399213,-0.916740,0.017588,-0.003070,0.010231,-22.023077,-13.827066,-39.006500,,,,,,,
1504280160.783322,-0.016910,0.410983,3.001544,0.013742,-0.093472,0.034984,-0.015501,-0.399511,-0.916597,0.015333,-0.004237,0.010683,-21.948797,-13.676279,-39.232452,,,,,,,
1504280160.793332,-0.017594,0.411002,3.001814,-0.019008,-0.056964,0.028458,-0.016128,-0.399528,-0.916579,0.007644,-0.004555,0.007750,-21.948797,-13.676279,-39.232452,,,,,,,
1504280160.803311,-0.017860,0.410685,3.002153,-0.041961,0.009290,0.030436,-0.016374,-0.399237,-0.916701,-0.003218,-0.004754,-0.000901,-22.024359,-13.451624,-39.234314,,,,,,,
1504280160.813321,-0.017672,0.410238,3.002591,-0.045758,0.070056,0.033526,-0.016205,-0.398828,-0.916883,-0.013031,-0.004569,-0.007235,-22.024359,-13.451624,-39.234314,,,,,,,
1504280160.823330,-0.017154,0.409775,3.003169,-0.033767,0.109370,0.045220,-0.015733,-0.398403,-0.917076,-0.017378,0.000667,-0.008217,-22.249365,-13.452631,-39.234863,,,,,,,
1504280160.833340,-0.016480,0.409496,3.003861,-0.001731,0.119749,0.055932,-0.015117,-0.398147,-0.917197,-0.016454,0.005905,-0.012185,-22.249365,-13.452631,-39.234863,,,,,,,
1504280160.843350,-0.015866,0.409446,3.004603,0.022651,0.103557,0.061341,-0.014554,-0.398101,-0.917226,-0.012866,0.009246,-0.008921,-22.024618,-13.301767,-39.160431,,,,,,,
1504280160.853360,-0.015400,0.409547,3.005276,0.035261,0.075753,0.055008,-0.014126,-0.398194,-0.917193,-0.006642,0.010910,-0.007536,-22.024618,-13.301767,-39.160431,,,,,,,
1504280160.863369,-0.015042,0.409781,3.005776,0.044726,0.050115,0.041193,-0.013796,-0.398409,-0.917104,-0.000013,0.008181,-0.010310,-21.875006,-13.151087,-39.161194,,,,,,,
1504280160.873379,-0.014803,0.409932,3.006085,0.018985,0.024768,0.027317,-0.013576,-0.398547,-0.917047,0.002666,0.003589,-0.006247,-21.875006,-13.151087,-39.161194,,,,,,,
1504280160.883389,-0.014750,0.410105,3.006236,0.018894,0.003473,0.011343,-0.013527,-0.398705,-0.916979,0.002220,0.000863,-0.003065,-21.650351,-13.149637,-39.385681,,,,,,,
1504280160.893399,-0.014787,0.410313,3.006299,0.017800,-0.003970,0.004950,-0.013559,-0.398896,-0.916896,0.000772,-0.002791,-0.002278,-21.650351,-13.149637,-39.385681,,,,,,,
1504280160.903408,-0.014893,0.410570,3.006341,0.017839,-0.001835,0.000677,-0.013655,-0.399132,-0.916792,-0.003389,-0.003288,0.003584,-21.725607,-13.000116,-39.311951,,,,,,,
1504280160.913418,-0.014895,0.410840,3.006376,0.021240,0.020518,-0.003626,-0.013655,-0.399380,-0.916684,-0.008028,-0.002430,0.004086,-21.725607,-13.000116,-39.311951,,,,,,,
1504280160.923428,-0.014598,0.411058,3.006443,0.017267,0.059972,0.000568,-0.013382,-0.399580,-0.916601,-0.011231,-0.000475,0.004537,-22.099890,-13.152246,-39.086761,,,,,,,
1504280160.933438,-0.014019,0.411263,3.006672,0.013255,0.100481,0.014367,-0.012850,-0.399767,-0.916527,-0.016218,-0.000501,0.007927,-22.099890,-13.152246,-39.086761,,,,,,,
1504280160.943448,-0.013318,0.411397,3.007107,0.006911,0.117564,0.030338,-0.012206,-0.399890,-0.916482,-0.019288,0.000309,0.008477,-21.800222,-13.150461,-39.311035,,,,,,,
1504280160.953457,-0.012619,0.411512,3.007606,0.007909,0.112220,0.035687,-0.011566,-0.399996,-0.916444,-0.016862,0.000078,0.007646,-21.800222,-13.150461,-39.311035,,,,,,,
1504280160.963467,-0.012100,0.411690,3.008039,0.013017,0.079150,0.028284,-0.011089,-0.400159,-0.916379,-0.013035,0.000775,0.009015,-21.724508,-13.300562,-39.084717,,,,,,,
1504280160.973477,-0.011855,0.411904,3.008249,0.014872,0.032267,0.009157,-0.010863,-0.400355,-0.916296,-0.006852,0.001811,0.013494,-21.724508,-13.300562,-39.084717,,,,,,,
1504280160.983487,-0.011929,0.412104,3.008171,0.012430,-0.020968,-0.014236,-0.010930,-0.400538,-0.916215,-0.001277,0.001719,0.013490,-21.574514,-13.299891,-39.084351,,,,,,,
1504280160.993496,-0.012361,0.412274,3.007869,0.007860,-0.068866,-0.030171,-0.011325,-0.400694,-0.916142,0.003162,0.000593,0.012211,-21.574514,-13.299891,-39.084351,,,,,,,
1504280161.003506,-0.013117,0.412369,3.007490,0.006514,-0.105082,-0.032245,-0.012017,-0.400781,-0.916095,0.004601,0.003106,0.010440,-21.799810,-13.225748,-39.160431,,,,,,,
1504280161.013516,-0.014110,0.412474,3.007149,0.017033,-0.121157,-0.027929,-0.012926,-0.400877,-0.916041,0.004595,0.005567,0.006052,-21.799810,-13.225748,-39.160431,,,,,,,
1504280161.023526,-0.015233,0.412692,3.006929,0.034085,-0.118109,-0.019365,-0.013954,-0.401077,-0.915938,0.000572,0.008773,0.007262,-21.650305,-13.074930,-39.236206,,,,,,,
1504280161.033535,-0.016280,0.413047,3.006850,0.045873,-0.102238,-0.004429,-0.014910,-0.401402,-0.915781,0.000643,0.009358,0.008172,-21.650305,-13.074930,-39.236206,,,,,,,
1504280161.043545,-0.017227,0.413482,3.007026,0.048133,-0.072444,0.017938,-0.015775,-0.401800,-0.915592,-0.003650,0.008047,0.009189,-22.174429,-13.377436,-39.160248,,,,,,,
1504280161.053555,-0.018039,0.413911,3.007449,0.037551,-0.048935,0.038159,-0.016514,-0.402193,-0.915406,-0.005046,0.003969,0.010545,-22.174429,-13.377436,-39.160248,,,,,,,
1504280161.063565,-0.018665,0.414155,3.008010,0.017437,-0.023206,0.047686,-0.017086,-0.402416,-0.915297,-0.005635,0.002285,0.008437,-21.950003,-13.151423,-39.161377,,,,,,,
1504280161.073544,-0.018991,0.414135,3.008541,-0.006827,0.007901,0.042253,-0.017385,-0.402398,-0.915300,-0.005824,0.002511,0.004945,-21.950003,-13.151423,-39.161377,,,,,,,
1504280161.083554,-0.018929,0.413898,3.008935,-0.031110,0.032622,0.030426,-0.017330,-0.402181,-0.915396,-0.003376,0.000600,0.003745,-22.249548,-13.377634,-39.235443,,,,,,,
1504280161.093564,-0.018585,0.413508,3.009157,-0.042618,0.051913,0.015428,-0.017018,-0.401824,-0.915559,-0.003032,0.000655,0.005387,-22.249548,-13.377634,-39.235443,,,,,,,
1504280161.103573,-0.018078,0.412935,3.009254,-0.067084,0.056384,0.007906,-0.016558,-0.401299,-0.915797,-0.001829,0.000634,0.005809,-22.099997,-13.152109,-39.161743,,,,,,,
1504280161.113583,-0.017732,0.412339,3.009318,-0.058717,0.033939,0.005826,-0.016245,-0.400753,-0.916042,-0.002645,0.000836,0.007824,-22.099997,-13.152109,-39.161743,,,,,,,
1504280161.123593,-0.017743,0.411983,3.009445,-0.027016,-0.000428,0.012346,-0.016258,-0.400427,-0.916184,-0.002236,0.001486,0.005998,-22.099554,-13.376963,-39.235077,,,,,,,
1504280161.133603,-0.018135,0.411992,3.009640,0.011103,-0.034845,0.015675,-0.016616,-0.400435,-0.916174,-0.002808,0.002852,0.007529,-22.099554,-13.376963,-39.235077,,,,,,,
1504280161.143612,-0.018794,0.412396,3.009790,0.047190,-0.061777,0.010448,-0.017217,-0.400805,-0.916001,-0.001399,0.004962,0.013154,-22.025534,-13.076319,-39.387146,,,,,,,
1504280161.153622,-0.019551,0.413033,3.009872,0.065296,-0.070443,0.003023,-0.017906,-0.401389,-0.915732,-0.000725,0.004524,0.011344,-22.025534,-13.076319,-39.387146,,,,,,,
1504280161.163632,-0.020289,0.413779,3.009924,0.070583,-0.066228,0.000942,-0.018575,-0.402072,-0.915419,-0.001261,0.002307,0.009307,-22.174780,-13.152735,-39.011932,,,,,,,
1504280161.173642,-0.020888,0.414528,3.009958,0.063301,-0.044853,-0.002310,-0.019117,-0.402758,-0.915107,-0.003618,0.000399,0.006766,-22.174780,-13.152735,-39.011932,,,,,,,
1504280161.183651,-0.021247,0.415079,3.009940,0.045376,-0.022322,-0.008785,-0.019441,-0.403263,-0.914878,-0.005309,0.000003,0.008246,-22.024206,-13.377069,-39.009857,,,,,,,
1504280161.193661,-0.021332,0.415388,3.009813,0.021046,-0.000802,-0.016336,-0.019517,-0.403545,-0.914752,-0.004333,0.000927,0.005267,-22.024206,-13.377069,-39.009857,,,,,,,
1504280161.203671,-0.021196,0.415418,3.009626,-0.001214,0.015368,-0.019606,-0.019391,-0.403572,-0.914742,-0.003695,0.001488,0.001137,-22.324514,-13.303263,-39.086182,,,,,,,
1504280161.213681,-0.020914,0.415210,3.009440,-0.029886,0.031589,-0.020751,-0.019135,-0.403382,-0.914832,-0.005614,-0.001312,0.001776,-22.324514,-13.303263,-39.086182,,,,,,,
1504280161.223690,-0.020585,0.414798,3.009255,-0.051225,0.032827,-0.018655,-0.018838,-0.403005,-0.915004,-0.005042,-0.001948,0.003902,-22.399282,-13.303904,-38.936340,,,,,,,
1504280161.233700,-0.020187,0.414286,3.009070,-0.054433,0.033916,-0.015460,-0.018478,-0.402536,-0.915217,-0.000672,-0.002508,0.001567,-22.399282,-13.303904,-38.936340,,,,,,,
1504280161.243710,-0.019693,0.413876,3.008902,-0.040528,0.040192,-0.012245,-0.018030,-0.402161,-0.915391,0.002160,-0.002059,0.003206,-22.099249,-13.452112,-39.159485,,,,,,,
1504280161.253720,-0.019223,0.413663,3.008782,-0.017059,0.041062,-0.010071,-0.017600,-0.401966,-0.915485,0.000419,0.001789,0.007542,-22.099249,-13.452112,-39.159485,,,,,,,
1504280161.263730,-0.018840,0.413742,3.008706,0.015910,0.031195,-0.004660,-0.017249,-0.402039,-0.915460,0.000983,0.003464,0.008203,-21.949179,-13.302027,-38.860260,,,,,,,
1504280161.273739,-0.018579,0.413997,3.008657,0.034944,0.011855,-0.001391,-0.017009,-0.402272,-0.915362,0.003642,0.006688,0.005908,-21.949179,-13.302027,-38.860260,,,,,,,
1504280161.283749,-0.018655,0.414279,3.008637,0.033576,-0.024366,0.000805,-0.017076,-0.402530,-0.915247,0.004335,0.008075,0.007227,-22.249060,-13.303522,-38.785980,,,,,,,
1504280161.293759,-0.018953,0.414458,3.008582,0.024903,-0.043471,-0.002378,-0.017347,-0.402694,-0.915170,0.005765,0.006423,0.000360,-22.249060,-13.303522,-38.785980,,,,,,,
1504280161.303761,-0.019212,0.414579,3.008459,0.014331,-0.035916,-0.009882,-0.017584,-0.402805,-0.915117,0.005941,0.002597,-0.002714,-22.023840,-13.302820,-38.635437,,,,,,,
1504280161.313770,-0.019357,0.414614,3.008324,-0.006887,-0.020823,-0.009946,-0.017716,-0.402837,-0.915100,0.003677,-0.000468,0.003617,-22.023840,-13.302820,-38.635437,,,,,,,
1504280161.323780,-0.019395,0.414431,3.008227,-0.027054,-0.005741,-0.006805,-0.017752,-0.402669,-0.915174,0.000952,-0.001597,0.004804,-22.323874,-13.378870,-38.785614,,,,,,,
1504280161.333759,-0.019336,0.414208,3.008229,-0.029054,0.015579,0.000626,-0.017700,-0.402465,-0.915264,-0.002533,-0.002839,0.000378,-22.323874,-13.378870,-38.785614,,,,,,,
1504280161.343769,-0.019089,0.414047,3.008278,-0.019308,0.034677,0.002744,-0.017475,-0.402318,-0.915333,-0.003383,-0.004756,0.003239,-21.949179,-13.302027,-38.860260,,,,,,,
1504280161.353779,-0.018857,0.414072,3.008346,0.002021,0.033435,0.002783,-0.017263,-0.402341,-0.915327,-0.005320,-0.000339,0.007918,-21.949179,-13.302027,-38.860260,,,,,,,
1504280161.363789,-0.018669,0.414198,3.008356,0.013722,0.023757,-0.005718,-0.017090,-0.402456,-0.915280,-0.004685,0.004033,0.010296,-22.248755,-13.602930,-39.083740,,,,,,,
1504280161.373798,-0.018621,0.414322,3.008233,0.013579,-0.000741,-0.016349,-0.017044,-0.402570,-0.915231,-0.003906,0.005719,0.009896,-22.248755,-13.602930,-39.083740,,,,,,,
1504280161.383808,-0.018773,0.414388,3.008026,0.009103,-0.029471,-0.020576,-0.017183,-0.402630,-0.915202,-0.001082,0.005352,0.006785,-22.024252,-13.451761,-39.159302,,,,,,,
1504280161.393818,-0.019197,0.414483,3.007814,0.006698,-0.061422,-0.017321,-0.017570,-0.402717,-0.915156,0.002189,0.001990,0.006983,-22.024252,-13.451761,-39.159302,,,,,,,
1504280161.403828,-0.019921,0.414620,3.007606,-0.001017,-0.092260,-0.017281,-0.018232,-0.402842,-0.915088,0.004240,-0.002203,0.011737,-22.323599,-13.752970,-39.232819,,,,,,,
1504280161.413837,-0.020922,0.414724,3.007388,-0.006619,-0.125248,-0.016165,-0.019147,-0.402937,-0.915027,0.007368,-0.003572,0.014377,-22.323599,-13.752970,-39.232819,,,,,,,
1504280161.423847,-0.022080,0.414776,3.007120,-0.014153,-0.136901,-0.021495,-0.020206,-0.402985,-0.914984,0.007069,-0.004684,0.013754,-22.323721,-13.528559,-38.934479,,,,,,,
1504280161.433857,-0.023287,0.414745,3.006841,-0.025886,-0.136804,-0.021516,-0.021311,-0.402957,-0.914971,0.005793,-0.004163,0.017785,-22.323721,-13.528559,-38.934479,,,,,,,
1504280161.443867,-0.024497,0.414604,3.006631,-0.035470,-0.131402,-0.016205,-0.022419,-0.402827,-0.915001,0.003239,-0.003804,0.019158,-22.473608,-13.529383,-38.859863,,,,,,,
1504280161.453877,-0.025719,0.414324,3.006505,-0.036500,-0.122876,-0.009818,-0.023540,-0.402572,-0.915086,0.001064,-0.000093,0.013490,-22.473608,-13.529383,-38.859863,,,,,,,
1504280161.463886,-0.026637,0.414072,3.006407,-0.019146,-0.086789,-0.008784,-0.024383,-0.402340,-0.915165,0.001159,0.004040,0.008473,-22.248724,-13.528223,-38.934296,,,,,,,
1504280161.473896,-0.027081,0.413948,3.006275,-0.004825,-0.033622,-0.014190,-0.024790,-0.402227,-0.915204,-0.001119,0.007452,0.008939,-22.248724,-13.528223,-38.934296,,,,,,,
1504280161.483906,-0.027056,0.413828,3.006152,-0.008687,0.016494,-0.015352,-0.024770,-0.402117,-0.915253,-0.004451,0.008181,0.010605,-22.474279,-13.304239,-38.936523,,,,,,,
1504280161.493916,-0.026652,0.413517,3.006071,-0.035039,0.059329,-0.011203,-0.024402,-0.401833,-0.915388,-0.008373,0.005058,0.005415,-22.474279,-13.304239,-38.936523,,,,,,,
1504280161.503925,-0.026056,0.412908,3.006062,-0.065914,0.072362,-0.003807,-0.023864,-0.401275,-0.915647,-0.008836,0.001189,-0.000140,-22.473837,-13.304834,-38.636536,,,,,,,
1504280161.513935,-0.025489,0.412076,3.006097,-0.086276,0.065063,0.002576,-0.023353,-0.400512,-0.915994,-0.007180,-0.001954,-0.000800,-22.473837,-13.304834,-38.636536,,,,,,,
1504280161.523945,-0.025088,0.411266,3.006121,-0.075829,0.037271,0.002643,-0.022994,-0.399770,-0.916327,-0.002931,-0.001780,-0.003183,-22.474615,-13.303797,-39.161530,,,,,,,
1504280161.533955,-0.024870,0.410632,3.006025,-0.055738,0.007281,-0.009011,-0.022800,-0.399188,-0.916585,0.001209,0.001178,0.001989,-22.474615,-13.303797,-39.161530,,,,,,,
1504280161.543964,-0.024878,0.410236,3.005798,-0.033511,-0.021661,-0.019596,-0.022811,-0.398826,-0.916743,0.003738,0.003989,0.008296,-22.549627,-13.304132,-39.161713,,,,,,,
1504280161.553974,-0.025110,0.410043,3.005527,-0.013401,-0.043136,-0.021658,-0.023026,-0.398648,-0.916815,0.003571,0.003965,0.006979,-22.549627,-13.304132,-39.161713,,,,,,,
1504280161.563984,-0.025463,0.410035,3.005282,0.003643,-0.046473,-0.021623,-0.023350,-0.398642,-0.916809,0.000950,0.001959,0.005097,-22.474691,-13.228937,-39.087128,,,,,,,
1504280161.573994,-0.025718,0.410063,3.005052,-0.000434,-0.024060,-0.023804,-0.023583,-0.398667,-0.916793,-0.003074,-0.000320,0.003188,-22.474691,-13.228937,-39.087128,,,,,,,
1504280161.584004,-0.025801,0.410129,3.004821,0.000881,0.003639,-0.029187,-0.023659,-0.398727,-0.916764,-0.009209,-0.000122,0.000993,-22.399588,-13.228754,-39.011932,,,,,,,
1504280161.594013,-0.025664,0.410006,3.004603,-0.016054,0.024018,-0.023914,-0.023534,-0.398615,-0.916816,-0.009791,0.000040,-0.001030,-22.399588,-13.228754,-39.011932,,,,,,,
1504280161.603993,-0.025444,0.409743,3.004474,-0.025613,0.034742,-0.015410,-0.023335,-0.398373,-0.916927,-0.009990,-0.001102,-0.005788,-22.398718,-13.528894,-38.934662,,,,,,,
1504280161.614002,-0.025209,0.409431,3.004440,-0.024606,0.032593,-0.006865,-0.023123,-0.398087,-0.917056,-0.008722,0.000092,-0.007413,-22.398718,-13.528894,-38.934662,,,,,,,
1504280161.624012,-0.024990,0.409184,3.004392,-0.020424,0.021902,-0.006838,-0.022925,-0.397861,-0.917159,-0.004053,-0.000302,-0.003388,-22.474508,-13.303934,-39.086548,,,,,,,
1504280161.634022,-0.024820,0.409092,3.004264,-0.007675,0.011147,-0.013202,-0.022770,-0.397777,-0.917200,-0.000424,-0.002202,-0.001929,-22.474508,-13.303934,-39.086548,,,,,,,
1504280161.644032,-0.024672,0.409144,3.004051,-0.002385,0.001520,-0.019580,-0.022633,-0.397824,-0.917182,0.002354,-0.001941,0.001197,-22.550528,-12.854425,-39.015106,,,,,,,
1504280161.654041,-0.024549,0.409365,3.003757,0.016783,-0.007155,-0.025936,-0.022518,-0.398027,-0.917098,0.004391,-0.003524,0.006209,-22.550528,-12.854425,-39.015106,,,,,,,
1504280161.664051,-0.024414,0.409634,3.003431,0.018919,-0.008235,-0.028066,-0.022391,-0.398274,-0.916993,0.005012,-0.002865,0.004411,-22.700155,-13.005106,-39.014343,,,,,,,
1504280161.674061,-0.024313,0.409856,3.003095,0.011437,-0.011368,-0.030208,-0.022297,-0.398477,-0.916907,0.003895,-0.001837,0.005378,-22.700155,-13.005106,-39.014343,,,,,,,
1504280161.684071,-0.024240,0.409936,3.002701,-0.003511,-0.015502,-0.034497,-0.022229,-0.398551,-0.916877,0.004041,-0.001825,0.004355,-22.399435,-13.378458,-39.160797,,,,,,,
1504280161.694080,-0.024184,0.409828,3.002301,-0.015257,-0.015407,-0.032383,-0.022179,-0.398451,-0.916921,0.004281,-0.001741,-0.001627,-22.399435,-13.378458,-39.160797,,,,,,,
1504280161.704090,-0.024137,0.409712,3.001990,-0.015260,-0.011151,-0.024919,-0.022138,-0.398345,-0.916969,0.003201,-0.003236,-0.002633,-22.474173,-13.528635,-39.234863,,,,,,,
1504280161.714100,-0.024081,0.409633,3.001732,-0.015216,-0.003696,-0.021730,-0.022087,-0.398272,-0.917001,0.000785,-0.003476,0.003168,-22.474173,-13.528635,-39.234863,,,,,,,
1504280161.724110,-0.023877,0.409595,3.001507,-0.003343,0.015384,-0.018541,-0.021900,-0.398238,-0.917021,0.001087,-0.000962,0.002195,-22.400106,-13.153299,-39.237488,,,,,,,
1504280161.734119,-0.023586,0.409652,3.001399,0.013770,0.028018,-0.006792,-0.021633,-0.398290,-0.917004,0.000026,0.002996,-0.000079,-22.400106,-13.153299,-39.237488,,,,,,,
1504280161.744129,-0.023343,0.409813,3.001407,0.015836,0.024796,0.001757,-0.021408,-0.398438,-0.916946,-0.001129,0.004089,0.009292,-22.473791,-13.678644,-39.233734,,,,,,,
1504280161.754139,-0.023179,0.409918,3.001454,0.010397,0.013117,0.003903,-0.021257,-0.398534,-0.916907,0.000581,0.004034,0.007773,-22.473791,-13.678644,-39.233734,,,,,,,
1504280161.764149,-0.023060,0.409947,3.001408,0.000744,0.001484,-0.004633,-0.021147,-0.398561,-0.916898,0.003554,0.003251,0.004819,-22.473272,-13.754084,-39.008179,,,,,,,
1504280161.774159,-0.022937,0.409927,3.001264,-0.009962,-0.005882,-0.008909,-0.021035,-0.398543,-0.916909,0.007104,0.001112,0.009300,-22.473272,-13.754084,-39.008179,,,,,,,
1504280161.784168,-0.022823,0.409855,3.001088,-0.019553,-0.005799,-0.011061,-0.020931,-0.398476,-0.916940,0.007122,-0.001563,0.011239,-22.474508,-13.303934,-39.086548,,,,,,,
1504280161.794178,-0.022652,0.409728,3.000893,-0.026935,0.002790,-0.014291,-0.020775,-0.398360,-0.916994,0.005394,-0.003938,0.008760,-22.474508,-13.303934,-39.086548,,,,,,,
1504280161.804188,-0.022367,0.409519,3.000696,-0.035372,0.015647,-0.013261,-0.020516,-0.398168,-0.917083,0.005227,-0.003718,0.008330,-22.624212,-13.379770,-39.011353,,,,,,,
1504280161.814198,-0.021950,0.409314,3.000552,-0.023549,0.030462,-0.006863,-0.020135,-0.397980,-0.917173,0.005090,-0.002594,0.006605,-22.624212,-13.379770,-39.011353,,,,,,,
1504280161.824207,-0.021542,0.409075,3.000515,-0.030971,0.040107,-0.000489,-0.019763,-0.397761,-0.917276,0.000674,-0.001791,0.007868,-22.324697,-13.228266,-39.086761,,,,,,,
1504280161.834217,-0.021095,0.408794,3.000532,-0.033064,0.046516,0.001631,-0.019355,-0.397503,-0.917397,-0.000420,-0.001759,0.004967,-22.324697,-13.228266,-39.086761,,,,,,,
1504280161.844227,-0.020612,0.408498,3.000550,-0.030874,0.052892,0.000557,-0.018915,-0.397231,-0.917524,-0.002264,-0.000794,0.002561,-22.099554,-13.376963,-39.235077,,,,,,,
1504280161.854237,-0.020200,0.408205,3.000619,-0.025631,0.045383,0.006984,-0.018539,-0.396963,-0.917647,-0.003358,0.001760,0.002791,-22.099554,-13.376963,-39.235077,,,,,,,
1504280161.864246,-0.019950,0.408016,3.000758,-0.016195,0.029313,0.014500,-0.018311,-0.396789,-0.917727,-0.002212,0.001357,0.002993,-22.549200,-13.379419,-39.011169,,,,,,,
1504280161.874256,-0.019893,0.407853,3.000966,-0.017489,0.004808,0.020945,-0.018260,-0.396639,-0.917793,0.000758,0.000826,0.003852,-22.549200,-13.379419,-39.011169,,,,,,,
1504280161.884235,-0.020015,0.407653,3.001169,-0.020818,-0.011148,0.020968,-0.018373,-0.396456,-0.917870,0.003084,0.001207,0.005074,-22.399130,-13.453608,-39.085236,,,,,,,
1504280161.894245,-0.020123,0.407493,3.001348,-0.010130,-0.010167,0.018849,-0.018474,-0.396309,-0.917931,0.004970,0.001304,-0.000907,-22.399130,-13.453608,-39.085236,,,,,,,
1504280161.904255,-0.020182,0.407436,3.001521,-0.003655,-0.001694,0.017778,-0.018528,-0.396256,-0.917953,0.002858,0.000611,0.001358,-22.399176,-13.528299,-39.234680,,,,,,,
1504280161.914265,-0.020173,0.407441,3.001750,-0.000362,0.013192,0.023094,-0.018520,-0.396261,-0.917951,0.000744,0.000296,0.004377,-22.399176,-13.528299,-39.234680,,,,,,,
1504280161.924274,-0.020080,0.407450,3.002097,-0.000282,0.029165,0.032673,-0.018435,-0.396269,-0.917949,-0.002027,-0.001192,-0.000889,-22.474478,-13.453485,-39.310425,,,,,,,
1504280161.934284,-0.020014,0.407463,3.002610,-0.002439,0.035560,0.047602,-0.018374,-0.396282,-0.917945,-0.004957,-0.001622,0.001746,-22.474478,-13.453485,-39.310425,,,,,,,
1504280161.944294,-0.019993,0.407441,3.003239,-0.006757,0.034520,0.056136,-0.018356,-0.396261,-0.917954,-0.004945,-0.002298,0.002503,-22.624731,-13.304316,-39.236908,,,,,,,
1504280161.954304,-0.020013,0.407382,3.003882,-0.014267,0.029254,0.056133,-0.018374,-0.396207,-0.917978,-0.004728,-0.003772,0.002542,-22.624731,-13.304316,-39.236908,,,,,,,
1504280161.964314,-0.020036,0.407314,3.004470,-0.013224,0.022857,0.050809,-0.018395,-0.396144,-0.918004,-0.001807,-0.004094,0.003652,-22.398382,-13.753611,-39.083008,,,,,,,
1504280161.974323,-0.020101,0.407263,3.004948,-0.012179,0.013269,0.040154,-0.018456,-0.396097,-0.918023,-0.001808,-0.003622,0.005364,-22.398382,-13.753611,-39.083008,,,,,,,
1504280161.984333,-0.020111,0.407313,3.005283,-0.003549,0.016409,0.026287,-0.018465,-0.396143,-0.918003,-0.001158,-0.004339,0.006870,-22.249884,-13.152933,-39.087128,,,,,,,
1504280161.994343,-0.020060,0.407449,3.005570,-0.003499,0.021737,0.025210,-0.018416,-0.396268,-0.917950,-0.001497,-0.005877,0.010922,-22.249884,-13.152933,-39.087128,,,,,,,
1504280162.004353,-0.020008,0.407521,3.005913,-0.013058,0.030334,0.030516,-0.018368,-0.396335,-0.917922,-0.005558,-0.006100,0.013091,-22.249472,-13.228220,-38.936554,,,,,,,
1504280162.014362,-0.019935,0.407470,3.006314,-0.029013,0.036857,0.031545,-0.018301,-0.396288,-0.917944,-0.007608,-0.007689,0.012869,-22.249472,-13.228220,-38.936554,,,,,,,
1504280162.024372,-0.019794,0.407318,3.006712,-0.044923,0.047644,0.030431,-0.018174,-0.396149,-0.918007,-0.009353,-0.010971,0.013618,-22.249624,-13.302774,-39.160980,,,,,,,
1504280162.034382,-0.019544,0.406966,3.007051,-0.060851,0.054172,0.026123,-0.017947,-0.395825,-0.918151,-0.008375,-0.008365,0.015227,-22.249624,-13.302774,-39.160980,,,,,,,
1504280162.044392,-0.019240,0.406463,3.007321,-0.067254,0.051031,0.021848,-0.017672,-0.395363,-0.918355,-0.006514,-0.007973,0.013097,-22.024817,-13.226770,-39.160980,,,,,,,
1504280162.054401,-0.018980,0.406036,3.007605,-0.061954,0.047788,0.023998,-0.017436,-0.394971,-0.918528,-0.007238,-0.007632,0.010828,-22.024817,-13.226770,-39.160980,,,,,,,
1504280162.064411,-0.018872,0.405648,3.007941,-0.047223,0.025282,0.029401,-0.017340,-0.394614,-0.918683,-0.005258,-0.004785,0.010480,-22.249731,-13.302637,-39.235992,,,,,,,
1504280162.074421,-0.019033,0.405405,3.008330,-0.030377,-0.000436,0.033745,-0.017489,-0.394391,-0.918776,-0.003644,-0.003390,0.010955,-22.249731,-13.302637,-39.235992,,,,,,,
1504280162.084431,-0.019393,0.405301,3.008753,-0.008122,-0.016608,0.038082,-0.017821,-0.394296,-0.918811,-0.002703,0.000360,0.006900,-22.249960,-13.302332,-39.386017,,,,,,,
1504280162.094441,-0.019758,0.405360,3.009239,0.011097,-0.011444,0.043444,-0.018156,-0.394349,-0.918781,-0.002062,0.002092,0.004520,-22.249960,-13.302332,-39.386017,,,,,,,
1504280162.104450,-0.020050,0.405435,3.009723,0.002695,0.002482,0.039135,-0.018424,-0.394419,-0.918746,-0.004968,0.001765,0.007857,-22.400457,-13.152857,-39.462524,,,,,,,
1504280162.114460,-0.020140,0.405306,3.010180,-0.016280,0.029280,0.035854,-0.018507,-0.394300,-0.918796,-0.007784,0.001813,0.002856,-22.400457,-13.152857,-39.462524,,,,,,,
1504280162.124470,-0.019963,0.404963,3.010684,-0.038460,0.061423,0.042164,-0.018347,-0.393985,-0.918934,-0.009973,-0.001828,-0.003460,-22.249884,-13.377176,-39.460480,,,,,,,
1504280162.134480,-0.019577,0.404482,3.011309,-0.052183,0.087096,0.053837,-0.017996,-0.393543,-0.919130,-0.012216,-0.002224,-0.001555,-22.249884,-13.377176,-39.460480,,,,,,,
1504280162.144489,-0.019072,0.403979,3.012070,-0.055314,0.103092,0.065545,-0.017536,-0.393080,-0.919337,-0.012829,-0.003664,0.001613,-22.251165,-12.777475,-39.314941,,,,,,,
1504280162.154469,-0.018582,0.403581,3.012961,-0.045770,0.103000,0.077304,-0.017088,-0.392714,-0.919502,-0.012850,-0.005937,0.002815,-22.251165,-12.777475,-39.314941,,,,,,,
1504280162.164478,-0.018179,0.403377,3.013927,-0.028883,0.094324,0.083799,-0.016719,-0.392527,-0.919589,-0.012044,-0.005270,0.010027,-22.251287,-12.777323,-39.389954,,,,,,,
1504280162.174488,-0.017912,0.403396,3.014951,-0.009779,0.083505,0.087054,-0.016473,-0.392544,-0.919586,-0.011816,-0.005161,0.016113,-22.251287,-12.777323,-39.389954,,,,,,,
1504280162.184498,-0.017721,0.403645,3.015937,0.005106,0.072732,0.080695,-0.016296,-0.392773,-0.919491,-0.011490,-0.006534,0.021801,-21.876959,-12.550486,-39.465729,,,,,,,
1504280162.194508,-0.017650,0.404041,3.016742,0.008238,0.050349,0.059393,-0.016228,-0.393137,-0.919337,-0.010780,-0.008551,0.027705,-21.876959,-12.550486,-39.465729,,,,,,,
1504280162.204517,-0.017668,0.404361,3.017178,0.001802,0.023797,0.024204,-0.016242,-0.393431,-0.919210,-0.009667,-0.007280,0.025961,-21.802298,-12.549707,-39.690521,,,,,,,
1504280162.214527,-0.017848,0.404664,3.017206,-0.000488,-0.016644,-0.008817,-0.016406,-0.393710,-0.919088,-0.006131,-0.008817,0.023092,-21.802298,-12.549707,-39.690521,,,,,,,
1504280162.224537,-0.018259,0.404988,3.016993,-0.001700,-0.046453,-0.026913,-0.016781,-0.394008,-0.918954,-0.005558,-0.011373,0.023019,-21.801245,-12.700602,-39.239380,,,,,,,
1504280162.234547,-0.018846,0.405355,3.016779,0.004629,-0.053969,-0.023686,-0.017318,-0.394345,-0.918799,-0.008225,-0.011493,0.022147,-21.801245,-12.700602,-39.239380,,,,,,,
1504280162.244556,-0.019584,0.405844,3.016815,0.009910,-0.046580,-0.000206,-0.017992,-0.394794,-0.918593,-0.013365,-0.014446,0.024962,-22.101553,-12.626810,-39.315704,,,,,,,
1504280162.254566,-0.020281,0.406351,3.017247,0.013166,-0.016811,0.037107,-0.018628,-0.395260,-0.918380,-0.016666,-0.012928,0.026489,-22.101553,-12.626810,-39.315704,,,,,,,
1504280162.264576,-0.020892,0.406754,3.018140,-0.001805,0.005642,0.080806,-0.019186,-0.395630,-0.918209,-0.016321,-0.012268,0.027630,-22.250189,-13.077784,-39.162659,,,,,,,
1504280162.274586,-0.021458,0.406942,3.019321,-0.026375,0.015409,0.103163,-0.019704,-0.395803,-0.918124,-0.013652,-0.013377,0.028674,-22.250189,-13.077784,-39.162659,,,,,,,
1504280162.284596,-0.022048,0.406761,3.020550,-0.054175,0.008176,0.104196,-0.020248,-0.395637,-0.918184,-0.012620,-0.011559,0.022371,-22.100866,-12.851954,-39.239014,,,,,,,
1504280162.294605,-0.022553,0.406258,3.021628,-0.077698,-0.004408,0.094571,-0.020716,-0.395175,-0.918372,-0.003332,-0.007886,0.020820,-22.100866,-12.851954,-39.239014,,,,,,,
1504280162.304591,-0.022953,0.405668,3.022502,-0.079766,-0.006506,0.078559,-0.021088,-0.394633,-0.918597,0.001099,-0.007818,0.018878,-21.875753,-12.851084,-39.163452,,,,,,,
1504280162.314601,-0.023213,0.405187,3.023259,-0.070009,0.007276,0.070012,-0.021331,-0.394191,-0.918781,0.001312,-0.007726,0.023212,-21.875753,-12.851084,-39.163452,,,,,,,
1504280162.324611,-0.023231,0.404902,3.023940,-0.060156,0.032777,0.061445,-0.021350,-0.393928,-0.918893,0.000202,-0.008705,0.033456,-22.101324,-12.627100,-39.165680,,,,,,,
1504280162.334620,-0.022962,0.404759,3.024670,-0.050304,0.068917,0.069938,-0.021105,-0.393797,-0.918955,-0.002470,-0.008898,0.037531,-22.101324,-12.627100,-39.165680,,,,,,,
1504280162.344630,-0.022521,0.404797,3.025635,-0.042828,0.085877,0.096605,-0.020699,-0.393832,-0.918949,-0.000175,-0.012937,0.042195,-22.101431,-12.626947,-39.240692,,,,,,,
1504280162.354640,-0.022142,0.404923,3.026937,-0.045090,0.089059,0.128617,-0.020349,-0.393948,-0.918907,0.000025,-0.016696,0.046425,-22.101431,-12.626947,-39.240692,,,,,,,
1504280162.364650,-0.021891,0.404953,3.028549,-0.049561,0.081606,0.158509,-0.020119,-0.393976,-0.918901,0.003304,-0.018683,0.039048,-21.877783,-12.175638,-39.393555,,,,,,,
1504280162.374659,-0.021775,0.404974,3.030384,-0.041188,0.071928,0.176686,-0.020012,-0.393995,-0.918895,0.006447,-0.018572,0.031444,-21.877783,-12.175638,-39.393555,,,,,,,
1504280162.384669,-0.021828,0.404980,3.032290,-0.042479,0.047424,0.183130,-0.020061,-0.394001,-0.918891,0.010615,-0.014615,0.031776,-21.953314,-11.876276,-39.245941,,,,,,,
1504280162.394679,-0.022164,0.405118,3.034167,-0.010771,0.008804,0.182184,-0.020368,-0.394128,-0.918830,0.014936,-0.009574,0.032096,-21.953314,-11.876276,-39.245941,,,,,,,
1504280162.404689,-0.022788,0.405376,3.036051,-0.001460,-0.025374,0.186528,-0.020939,-0.394364,-0.918716,0.019551,-0.007659,0.030700,-22.253424,-11.877481,-39.321716,,,,,,,
1504280162.414698,-0.023700,0.405904,3.037990,0.030290,-0.053347,0.194102,-0.021772,-0.394849,-0.918488,0.022123,-0.005160,0.036789,-22.253424,-11.877481,-39.321716,,,,,,,
1504280162.424678,-0.024778,0.406688,3.039938,0.042000,-0.059830,0.189863,-0.022755,-0.395569,-0.918154,0.020359,-0.008987,0.041750,-22.254065,-11.577616,-39.248932,,,,,,,
1504280162.434688,-0.025672,0.407621,3.041850,0.046498,-0.034286,0.185554,-0.023566,-0.396427,-0.917764,0.020056,-0.012326,0.043771,-22.254065,-11.577616,-39.248932,,,,,,,
1504280162.444697,-0.026221,0.408627,3.043695,0.037182,-0.003298,0.179077,-0.024059,-0.397349,-0.917352,0.019161,-0.019154,0.049249,-22.628469,-11.729609,-39.098755,,,,,,,
1504280162.454707,-0.026544,0.409497,3.045502,0.002147,0.016176,0.176845,-0.024347,-0.398148,-0.916998,0.019174,-0.027008,0.051138,-22.628469,-11.729609,-39.098755,,,,,,,
1504280162.464717,-0.026808,0.410123,3.047312,-0.022491,0.006784,0.183221,-0.024582,-0.398722,-0.916742,0.022873,-0.033437,0.050013,-22.402639,-12.103449,-39.170349,,,,,,,
1504280162.474727,-0.027237,0.410636,3.049129,-0.051569,-0.024946,0.188560,-0.024970,-0.399192,-0.916527,0.030692,-0.039818,0.050957,-22.402639,-12.103449,-39.170349,,,,,,,
1504280162.484736,-0.027975,0.410910,3.050913,-0.071065,-0.063142,0.187523,-0.025643,-0.399444,-0.916399,0.035180,-0.039048,0.055254,-22.778357,-11.730433,-39.024109,,,,,,,
1504280162.494746,-0.028863,0.411037,3.052581,-0.076496,-0.082264,0.177936,-0.026455,-0.399560,-0.916325,0.038724,-0.037131,0.052205,-22.778357,-11.730433,-39.024109,,,,,,,
1504280162.504756,-0.029774,0.411282,3.054155,-0.064712,-0.083412,0.168348,-0.027288,-0.399785,-0.916203,0.037740,-0.037517,0.052509,-22.628576,-11.729456,-39.173737,,,,,,,
1504280162.514766,-0.030598,0.411595,3.055603,-0.068890,-0.080166,0.157657,-0.028039,-0.400071,-0.916055,0.038735,-0.039901,0.056604,-22.628576,-11.729456,-39.173737,,,,,,,
1504280162.524775,-0.031382,0.412065,3.056949,-0.057131,-0.084510,0.148075,-0.028751,-0.400502,-0.915845,0.039737,-0.046245,0.050381,-22.778280,-11.805277,-39.098572,,,,,,,
1504280162.534785,-0.032115,0.412426,3.058110,-0.073089,-0.090750,0.130976,-0.029417,-0.400833,-0.915679,0.040983,-0.052323,0.043105,-22.778280,-11.805277,-39.098572,,,,,,,
1504280162.544795,-0.032781,0.412644,3.058958,-0.101869,-0.105398,0.104262,-0.030024,-0.401033,-0.915571,0.046687,-0.057570,0.039854,-22.704626,-11.354639,-39.251740,,,,,,,
1504280162.554805,-0.034204,0.411252,3.059807,-0.147623,-0.107123,0.076433,-0.031346,-0.399757,-0.916085,0.054708,-0.067986,0.030526,-22.704626,-11.354639,-39.251740,,,,,,,
1504280162.564814,-0.035362,0.409254,3.060407,-0.216699,-0.084158,0.058127,-0.032435,-0.397925,-0.916844,0.058543,-0.075875,0.025670,-23.154135,-11.506815,-39.176727,,,,,,,
1504280162.574824,-0.036102,0.406732,3.060813,-0.260073,-0.046490,0.044109,-0.033149,-0.395610,-0.917820,0.053794,-0.081472,0.028080,-23.154135,-11.506815,-39.176727,,,,,,,
1504280162.584834,-0.035352,0.405170,3.060743,-0.318228,0.011548,0.034295,-0.032483,-0.394175,-0.918461,0.047757,-0.083959,0.027745,-23.004171,-11.580851,-39.325806,,,,,,,
1504280162.594844,-0.034868,0.401810,3.060923,-0.340109,0.072475,0.026677,-0.032085,-0.391085,-0.919795,0.042094,-0.082350,0.030589,-23.004171,-11.580851,-39.325806,,,,,,,
1504280162.604854,-0.033701,0.398374,3.061009,-0.343831,0.135385,0.018021,-0.031056,-0.387920,-0.921170,0.040807,-0.078618,0.033947,-23.005148,-11.280542,-39.478088,,,,,,,
1504280162.614863,-0.032025,0.394905,3.061074,-0.347749,0.179107,0.017937,-0.029555,-0.384720,-0.922560,0.045577,-0.077179,0.037092,-23.005148,-11.280542,-39.478088,,,,,,,
1504280162.624873,-0.029235,0.392782,3.060787,-0.365848,0.183523,0.020027,-0.027005,-0.382760,-0.923453,0.047558,-0.074576,0.039679,-23.005941,-10.830988,-39.256439,,,,,,,
1504280162.634883,-0.026512,0.390387,3.060540,-0.380953,0.165532,0.027499,-0.024515,-0.380546,-0.924437,0.053308,-0.075981,0.027861,-23.005941,-10.830988,-39.256439,,,,,,,
1504280162.644893,-0.024079,0.388004,3.060403,-0.364132,0.138751,0.037176,-0.022287,-0.378341,-0.925398,0.057917,-0.081482,0.016951,-22.931631,-10.829752,-39.706238,,,,,,,
1504280162.654902,-0.021936,0.386076,3.060343,-0.320695,0.103228,0.044779,-0.020320,-0.376556,-0.926171,0.061198,-0.083466,0.018899,-22.931631,-10.829752,-39.706238,,,,,,,
1504280162.664912,-0.020138,0.384775,3.060413,-0.260277,0.061165,0.059894,-0.018665,-0.375350,-0.926695,0.064563,-0.079560,0.027785,-22.782644,-10.154978,-39.260925,,,,,,,
1504280162.674922,-0.018842,0.384095,3.060702,-0.204144,0.020197,0.080337,-0.017468,-0.374720,-0.926973,0.064572,-0.078435,0.032289,-22.782644,-10.154978,-39.260925,,,,,,,
1504280162.684932,-0.017988,0.383913,3.061256,-0.157487,-0.003645,0.102869,-0.016678,-0.374552,-0.927056,0.062057,-0.076651,0.035592,-22.559072,-9.853067,-39.712646,,,,,,,
1504280162.694911,-0.017477,0.384019,3.062030,-0.139499,-0.017649,0.113593,-0.016203,-0.374649,-0.927025,0.055433,-0.074814,0.041557,-22.559072,-9.853067,-39.712646,,,,,,,
1504280162.704921,-0.017234,0.384104,3.062900,-0.144836,-0.019729,0.113584,-0.015978,-0.374728,-0.926997,0.045427,-0.074506,0.041224,-22.708395,-10.078897,-39.636353,,,,,,,
1504280162.714930,-0.017052,0.383946,3.063881,-0.158668,-0.010029,0.124213,-0.015810,-0.374582,-0.927059,0.042177,-0.074530,0.026699,-22.708395,-10.078897,-39.636353,,,,,,,
1504280162.724940,-0.016832,0.383627,3.065028,-0.179840,0.015715,0.134802,-0.015608,-0.374286,-0.927182,0.035124,-0.079205,0.022809,-22.858740,-9.854868,-39.488403,,,,,,,
1504280162.734950,-0.016541,0.383228,3.066315,-0.186004,0.045605,0.137939,-0.015341,-0.373917,-0.927336,0.024542,-0.081726,0.023954,-22.858740,-9.854868,-39.488403,,,,,,,
1504280162.744960,-0.016014,0.382814,3.067598,-0.187965,0.064809,0.136834,-0.014854,-0.373533,-0.927498,0.024300,-0.080523,0.025276,-23.010321,-9.404932,-39.792145,,,,,,,
1504280162.754969,-0.015327,0.382739,3.068731,-0.151580,0.066663,0.120881,-0.014217,-0.373463,-0.927536,0.027248,-0.080334,0.030854,-23.010321,-9.404932,-39.792145,,,,,,,
1504280162.764979,-0.014771,0.383110,3.069502,-0.101558,0.019421,0.073016,-0.013700,-0.373807,-0.927405,0.028455,-0.080493,0.035407,-22.935171,-9.330057,-39.567505,,,,,,,
1504280162.774989,-0.014004,0.384241,3.069705,-0.005145,0.041052,0.032581,-0.012983,-0.374856,-0.926992,0.031308,-0.069770,0.038809,-22.935171,-9.330057,-39.567505,,,,,,,
1504280162.784999,-0.013169,0.385555,3.069720,0.027763,0.010962,0.019878,-0.012202,-0.376074,-0.926509,0.036326,-0.042841,0.046443,-23.010427,-9.180536,-39.493835,,,,,,,
1504280162.795009,-0.012895,0.388017,3.069317,0.008417,-0.042095,-0.032365,-0.011936,-0.378353,-0.925584,0.028614,-0.117985,0.053041,-23.010427,-9.180536,-39.493835,,,,,,,
1504280162.805018,-0.012262,0.389460,3.068404,-0.010415,-0.020583,-0.069797,-0.011344,-0.379689,-0.925045,0.035300,-0.090892,0.004573,-22.709417,-9.629038,-39.564697,,,,,,,
1504280162.815028,-0.011259,0.390459,3.067155,-0.051815,-0.010621,-0.093373,-0.010411,-0.380613,-0.924676,0.039754,-0.076739,0.022225,-22.709417,-9.629038,-39.564697,,,,,,,
1504280162.825038,-0.010378,0.391567,3.065886,-0.073250,-0.022163,-0.089123,-0.009592,-0.381637,-0.924262,0.036875,-0.100235,0.029258,-22.860159,-9.329706,-39.567322,,,,,,,
1504280162.835048,-0.009645,0.392378,3.064881,-0.061684,-0.026546,-0.059211,-0.008912,-0.382387,-0.923959,0.037675,-0.087431,0.010034,-22.860159,-9.329706,-39.567322,,,,,,,
1504280162.845057,-0.009224,0.393491,3.064244,-0.028826,-0.037496,-0.030318,-0.008519,-0.383415,-0.923537,0.033834,-0.084374,0.018828,-22.934561,-9.480356,-39.416412,,,,,,,
1504280162.855067,-0.008843,0.394855,3.063739,-0.007466,-0.033409,-0.024953,-0.008163,-0.384675,-0.923016,0.033660,-0.083648,0.021496,-22.934561,-9.480356,-39.416412,,,,,,,
1504280162.865077,-0.008326,0.396282,3.063038,0.012999,-0.026088,-0.049484,-0.007681,-0.385991,-0.922470,0.032598,-0.077754,0.012329,-23.009680,-9.480539,-39.491608,,,,,,,
1504280162.875087,-0.007599,0.397506,3.061968,-0.001786,-0.029123,-0.082597,-0.007007,-0.387120,-0.922003,0.035266,-0.070781,0.010916,-23.009680,-9.480539,-39.491608,,,,,,,
1504280162.885096,-0.006849,0.398461,3.060554,-0.017868,-0.055600,-0.107133,-0.006313,-0.388001,-0.921637,0.040553,-0.069427,0.000235,-22.934118,-9.705194,-39.489716,,,,,,,
1504280162.895106,-0.006491,0.399171,3.059011,-0.026785,-0.107732,-0.112398,-0.005981,-0.388654,-0.921364,0.043380,-0.069094,-0.015174,-22.934118,-9.705194,-39.489716,,,,,,,
1504280162.905116,-0.006774,0.399697,3.057542,-0.020873,-0.165327,-0.104820,-0.006240,-0.389139,-0.921158,0.042068,-0.061987,-0.028366,-23.159826,-9.331507,-39.343079,,,,,,,
1504280162.915126,-0.008261,0.399589,3.056479,-0.006246,-0.197427,-0.094064,-0.007610,-0.389040,-0.921189,0.042309,-0.063032,-0.033965,-23.159826,-9.331507,-39.343079,,,,,,,
1504280162.925136,-0.009823,0.399487,3.055525,-0.013692,-0.189914,-0.086618,-0.009050,-0.388945,-0.921216,0.039323,-0.061051,-0.041995,-22.709677,-9.479181,-39.490845,,,,,,,
1504280162.935145,-0.011093,0.399494,3.054613,0.002602,-0.151690,-0.083455,-0.010219,-0.388952,-0.921201,0.029598,-0.051462,-0.053042,-22.709677,-9.479181,-39.490845,,,,,,,
1504280162.945155,-0.011390,0.399924,3.053576,0.021237,-0.087909,-0.080336,-0.010491,-0.389349,-0.921031,0.020333,-0.042399,-0.061193,-23.234365,-9.556696,-39.416565,,,,,,,
1504280162.955165,-0.011501,0.400304,3.052747,0.044093,-0.029493,-0.077197,-0.010591,-0.389698,-0.920882,0.015596,-0.035473,-0.066835,-23.234365,-9.556696,-39.416565,,,,,,,
1504280162.965175,-0.011231,0.400969,3.051951,0.075267,0.002214,-0.072929,-0.010340,-0.390311,-0.920625,0.013041,-0.031717,-0.073454,-23.384558,-9.258112,-39.044159,,,,,,,
1504280162.975154,-0.010920,0.402066,3.051230,0.117918,0.002922,-0.066452,-0.010049,-0.391320,-0.920200,0.016366,-0.030555,-0.075131,-23.384558,-9.258112,-39.044159,,,,,,,
1504280162.985164,-0.010294,0.403703,3.050349,0.175286,-0.025260,-0.062038,-0.009466,-0.392826,-0.919564,0.025106,-0.035091,-0.076545,-23.234640,-9.406839,-39.342682,,,,,,,
1504280162.995173,-0.010593,0.405734,3.049704,0.210169,-0.066040,-0.061905,-0.009733,-0.394693,-0.918762,0.032240,-0.040106,-0.077943,-23.234640,-9.406839,-39.342682,,,,,,,
1504280163.005183,-0.011303,0.408034,3.049028,0.236512,-0.109942,-0.066052,-0.010375,-0.396805,-0.917844,0.036544,-0.045211,-0.085314,-23.458807,-9.558451,-39.042084,,,,,,,
1504280163.015193,-0.012376,0.410295,3.048279,0.218140,-0.143882,-0.073496,-0.011349,-0.398880,-0.916933,0.034832,-0.043640,-0.097105,-23.458807,-9.558451,-39.042084,,,,,,,
1504280163.025203,-0.013460,0.412309,3.047312,0.192658,-0.143647,-0.098090,-0.012331,-0.400726,-0.916115,0.021227,-0.027802,-0.122932,-23.908239,-9.785486,-39.041534,,,,,,,
1504280163.035212,-0.014020,0.413942,3.046024,0.152658,-0.094268,-0.128134,-0.012836,-0.402222,-0.915452,0.006915,-0.008758,-0.143462,-23.908239,-9.785486,-39.041534,,,,,,,
1504280163.045222,-0.013835,0.415303,3.044433,0.123429,-0.029000,-0.152850,-0.012659,-0.403467,-0.914906,0.003305,0.001978,-0.153453,-23.382345,-10.008570,-38.813538,,,,,,,
1504280163.055232,-0.013035,0.416215,3.042796,0.077956,0.025713,-0.146621,-0.011922,-0.404302,-0.914548,-0.006099,0.013341,-0.154910,-23.382345,-10.008570,-38.813538,,,,,,,
1504280163.065242,-0.012001,0.416788,3.041408,0.044963,0.052597,-0.120040,-0.010974,-0.404825,-0.914328,-0.016690,0.019037,-0.151849,-23.531652,-10.234400,-38.737244,,,,,,,
1504280163.075251,-0.010980,0.417009,3.040295,0.017150,0.058130,-0.096615,-0.010039,-0.405027,-0.914249,-0.033510,0.022032,-0.146175,-23.531652,-10.234400,-38.737244,,,,,,,
1504280163.085261,-0.009963,0.417205,3.039391,0.022502,0.070856,-0.079550,-0.009108,-0.405207,-0.914180,-0.045793,0.031458,-0.143483,-23.682074,-9.935511,-38.514832,,,,,,,
1504280163.095271,-0.010002,0.415858,3.039096,0.060970,0.086504,-0.069899,-0.009150,-0.403975,-0.914724,-0.056219,0.045774,-0.127878,-23.682074,-9.935511,-38.514832,,,,,,,
1504280163.105281,-0.008736,0.416662,3.038351,0.085605,0.099087,-0.068811,-0.007988,-0.404710,-0.914410,-0.069572,0.063386,-0.104770,-23.681997,-10.010370,-38.589264,,,,,,,
1504280163.115291,-0.007370,0.417871,3.037644,0.131552,0.110426,-0.064482,-0.006735,-0.405816,-0.913930,-0.075647,0.081567,-0.089625,-23.681997,-10.010370,-38.589264,,,,,,,
1504280163.125300,-0.005891,0.419198,3.036947,0.133785,0.122130,-0.065566,-0.005381,-0.407028,-0.913400,-0.078558,0.094437,-0.077643,-23.232107,-9.783945,-38.289856,,,,,,,
1504280163.135310,-0.006234,0.418109,3.036924,0.151927,0.119846,-0.075129,-0.005697,-0.406033,-0.913841,-0.078822,0.100980,-0.065530,-23.232107,-9.783945,-38.289856,,,,,,,
1504280163.145320,-0.004718,0.419741,3.035988,0.168989,0.110130,-0.088958,-0.004309,-0.407524,-0.913184,-0.074823,0.110008,-0.055001,-23.456701,-10.084513,-38.513153,,,,,,,
1504280163.155330,-0.003307,0.421756,3.034964,0.210518,0.095942,-0.095266,-0.003017,-0.409363,-0.912367,-0.072422,0.119248,-0.041567,-23.456701,-10.084513,-38.513153,,,,,,,
1504280163.165339,-0.002052,0.424317,3.033898,0.275359,0.075153,-0.099342,-0.001870,-0.411699,-0.911318,-0.076225,0.128709,-0.025434,-23.231512,-10.158487,-38.512054,,,,,,,
1504280163.175349,-0.003130,0.424636,3.033561,0.316771,0.044976,-0.113084,-0.002852,-0.411989,-0.911184,-0.080751,0.131319,-0.001932,-23.231512,-10.158487,-38.512054,,,,,,,
1504280163.185359,-0.002314,0.428064,3.032194,0.350783,0.018073,-0.130056,-0.002105,-0.415111,-0.909768,-0.080582,0.145167,0.004648,-23.230154,-10.608789,-38.358673,,,,,,,
1504280163.195369,-0.001630,0.431786,3.030548,0.377417,-0.003430,-0.156657,-0.001480,-0.418493,-0.908219,-0.080246,0.153250,0.009476,-23.230154,-10.608789,-38.358673,,,,,,,
1504280163.205378,-0.000827,0.435657,3.028455,0.388275,-0.007735,-0.201461,-0.000750,-0.422006,-0.906592,-0.079084,0.154138,0.017966,-23.155264,-10.608301,-38.433472,,,,,,,
1504280163.215388,-0.001537,0.437066,3.026508,0.373444,-0.023555,-0.252687,-0.001393,-0.423283,-0.905996,-0.079021,0.154698,0.023474,-23.155264,-10.608301,-38.433472,,,,,,,
1504280163.225398,-0.000677,0.440635,3.023318,0.345636,-0.060575,-0.298569,-0.000612,-0.426514,-0.904481,-0.083769,0.155305,0.024003,-23.078390,-11.133722,-38.054352,,,,,,,
1504280163.235408,-0.000030,0.443539,3.019752,0.267606,-0.097197,-0.328527,-0.000027,-0.429139,-0.903238,-0.082035,0.149857,0.019297,-23.078390,-11.133722,-38.054352,,,,,,,
1504280163.245387,0.000337,0.445559,3.016056,0.175590,-0.131600,-0.331828,0.000304,-0.430962,-0.902370,-0.084395,0.143364,0.016384,-22.927603,-11.358347,-37.902283,,,,,,,
1504280163.255397,-0.001543,0.444061,3.013351,0.074141,-0.133985,-0.322383,-0.001393,-0.429610,-0.903013,-0.085948,0.132079,0.008757,-22.927603,-11.358347,-37.902283,,,,,,,
1504280163.265407,-0.001255,0.444194,3.009884,-0.005785,-0.114159,-0.309748,-0.001134,-0.429730,-0.902956,-0.097423,0.121976,0.007891,-23.151770,-11.734217,-37.975037,,,,,,,
1504280163.275416,-0.000649,0.443768,3.006490,-0.052432,-0.074352,-0.305629,-0.000586,-0.429345,-0.903140,-0.104440,0.118127,0.010471,-23.151770,-11.734217,-37.975037,,,,,,,
1504280163.285426,0.000367,0.443123,3.003074,-0.065974,-0.035874,-0.309990,0.000331,-0.428763,-0.903417,-0.109203,0.117591,0.014165,-23.077185,-11.658579,-38.125427,,,,,,,
1504280163.295436,-0.001055,0.440188,3.000777,-0.050648,0.007685,-0.322836,-0.000954,-0.426109,-0.904671,-0.104423,0.112114,0.015328,-23.077185,-11.658579,-38.125427,,,,,,,
1504280163.305431,0.001005,0.440032,2.997117,-0.001054,0.064832,-0.334592,0.000910,-0.425968,-0.904738,-0.100000,0.111729,0.009932,-23.227072,-11.435144,-37.677460,,,,,,,
1504280163.315440,0.003705,0.440530,2.993396,0.068775,0.123931,-0.335643,0.003351,-0.426419,-0.904520,-0.096567,0.110470,0.011713,-23.227072,-11.435144,-37.677460,,,,,,,
1504280163.325450,0.006669,0.441576,2.989788,0.116879,0.144831,-0.320653,0.006029,-0.427365,-0.904059,-0.095812,0.109066,0.024665,-22.702444,-11.507044,-38.050598,,,,,,,
1504280163.335460,0.007195,0.441180,2.987409,0.145450,0.132835,-0.296022,0.006506,-0.427007,-0.904225,-0.088019,0.101048,0.035054,-22.702444,-11.507044,-38.050598,,,,,,,
1504280163.345470,0.009650,0.442626,2.984366,0.145122,0.110429,-0.266095,0.008719,-0.428314,-0.903588,-0.079520,0.089477,0.042382,-22.626318,-11.732447,-37.673737,,,,,,,
1504280163.355479,0.011845,0.443863,2.981604,0.118248,0.099970,-0.242641,0.010697,-0.429431,-0.903036,-0.069977,0.076373,0.055685,-22.626318,-11.732447,-37.673737,,,,,,,
1504280163.365489,0.013977,0.444658,2.979015,0.068053,0.102501,-0.228856,0.012617,-0.430149,-0.902670,-0.062834,0.061848,0.069662,-22.626425,-11.732294,-37.748749,,,,,,,
1504280163.375499,0.016064,0.444830,2.976521,0.005048,0.098752,-0.223621,0.014500,-0.430304,-0.902567,-0.056141,0.048713,0.079234,-22.626425,-11.732294,-37.748749,,,,,,,
1504280163.385509,0.018069,0.444357,2.974091,-0.057967,0.093937,-0.218385,0.016313,-0.429877,-0.902740,-0.050096,0.038566,0.084884,-22.400900,-12.030985,-37.895935,,,,,,,
1504280163.395519,0.018805,0.443686,2.972280,-0.094236,0.098485,-0.212045,0.016983,-0.429271,-0.903016,-0.042191,0.029735,0.082566,-22.400900,-12.030985,-37.895935,,,,,,,
1504280163.405529,0.020839,0.442745,2.970022,-0.087779,0.110146,-0.204583,0.018828,-0.428421,-0.903383,-0.041198,0.024033,0.087312,-22.176092,-11.954981,-37.895935,,,,,,,
1504280163.415539,0.022864,0.441888,2.967901,-0.076115,0.111099,-0.188553,0.020666,-0.427647,-0.903710,-0.045111,0.023762,0.091393,-22.176092,-11.954981,-37.895935,,,,,,,
1504280163.425549,0.024727,0.441286,2.965977,-0.047468,0.102319,-0.170342,0.022356,-0.427103,-0.903927,-0.047472,0.027002,0.086803,-22.175863,-11.955271,-37.745941,,,,,,,
1504280163.435559,0.026382,0.440925,2.964285,-0.026353,0.088269,-0.147866,0.023856,-0.426776,-0.904042,-0.047858,0.028003,0.084447,-22.175863,-11.955271,-37.745941,,,,,,,
1504280163.445567,0.026485,0.441212,2.963343,-0.009452,0.075320,-0.133930,0.023946,-0.427035,-0.903918,-0.043675,0.022632,0.081988,-22.025198,-12.179758,-37.668884,,,,,,,
1504280163.455577,0.027543,0.441140,2.961993,-0.003426,0.039023,-0.116778,0.024903,-0.426971,-0.903922,-0.042054,0.014861,0.082206,-22.025198,-12.179758,-37.668884,,,,,,,
1504280163.465587,0.027979,0.441089,2.960862,-0.002915,-0.018544,-0.097462,0.025297,-0.426925,-0.903933,-0.039595,0.006804,0.082980,-22.175192,-12.180429,-37.669250,,,,,,,
1504280163.475597,0.027849,0.441140,2.959954,0.012646,-0.061317,-0.077079,0.025180,-0.426971,-0.903915,-0.035693,-0.002778,0.079910,-22.175192,-12.180429,-37.669250,,,,,,,
1504280163.485606,0.026406,0.442594,2.959587,0.017789,-0.082684,-0.070622,0.023859,-0.428285,-0.903329,-0.031397,-0.009856,0.077904,-21.800573,-12.028742,-37.669434,,,,,,,
1504280163.495616,0.025868,0.442700,2.958814,0.009207,-0.087942,-0.069561,0.023371,-0.428381,-0.903296,-0.032618,-0.014246,0.082648,-21.800573,-12.028742,-37.669434,,,,,,,
1504280163.505626,0.025450,0.442579,2.958087,-0.018388,-0.066409,-0.064309,0.022995,-0.428271,-0.903358,-0.034042,-0.018552,0.079383,-22.025763,-11.954752,-37.670563,,,,,,,
1504280163.515636,0.025411,0.442142,2.957427,-0.050032,-0.018200,-0.060180,0.022965,-0.427876,-0.903545,-0.039917,-0.029567,0.068356,-22.025763,-11.954752,-37.670563,,,,,,,
1504280163.525615,0.024396,0.443257,2.957461,-0.077268,0.042754,-0.060326,0.022036,-0.428884,-0.903091,-0.049624,-0.039225,0.062560,-22.025717,-11.880045,-37.521088,,,,,,,
1504280163.535625,0.025454,0.442413,2.956827,-0.082238,0.089679,-0.058283,0.023001,-0.428121,-0.903428,-0.055822,-0.045221,0.059312,-22.025717,-11.880045,-37.521088,,,,,,,
1504280163.545635,0.026873,0.441689,2.956191,-0.063868,0.119364,-0.057236,0.024291,-0.427467,-0.903705,-0.057296,-0.052742,0.053454,-22.249746,-12.181360,-37.369415,,,,,,,
1504280163.555645,0.028355,0.441354,2.955562,-0.020118,0.120069,-0.057161,0.025635,-0.427164,-0.903811,-0.054016,-0.062109,0.052004,-22.249746,-12.181360,-37.369415,,,,,,,
1504280163.565655,0.027933,0.443997,2.955789,0.057369,0.084228,-0.030270,0.025221,-0.429552,-0.902690,-0.050047,-0.063245,0.046977,-22.025717,-11.880045,-37.521088,,,,,,,
1504280163.575665,0.028297,0.445041,2.955790,0.119576,0.018669,0.013717,0.025537,-0.430495,-0.902232,-0.043146,-0.064836,0.049570,-22.025717,-11.880045,-37.521088,,,,,,,
1504280163.585674,0.027807,0.446604,2.956103,0.166916,-0.052073,0.035272,0.025077,-0.431906,-0.901570,-0.046134,-0.071467,0.047688,-22.025946,-11.879755,-37.671112,,,,,,,
1504280163.595684,0.026673,0.448505,2.956444,0.195249,-0.111979,0.034359,0.024032,-0.433618,-0.900776,-0.041335,-0.079138,0.029606,-22.025946,-11.879755,-37.671112,,,,,,,
1504280163.605694,0.024162,0.452885,2.957063,0.204773,-0.139744,0.009880,0.021724,-0.437562,-0.898926,-0.034053,-0.081710,0.014572,-21.874975,-11.955118,-37.145172,,,,,,,
1504280163.615704,0.022909,0.454797,2.956784,0.187943,-0.134237,-0.029653,0.020578,-0.439280,-0.898114,-0.033533,-0.086034,0.000898,-21.874975,-11.955118,-37.145172,,,,,,,
1504280163.625713,0.022079,0.456537,2.956213,0.167039,-0.094613,-0.053242,0.019816,-0.440842,-0.897366,-0.025126,-0.092895,-0.017246,-22.024817,-12.105494,-37.294403,,,,,,,
1504280163.635722,0.021961,0.458134,2.955436,0.162295,-0.030621,-0.069374,0.019695,-0.442275,-0.896663,-0.032589,-0.095872,-0.031331,-22.024817,-12.105494,-37.294403,,,,,,,
1504280163.645732,0.021394,0.461601,2.955165,0.146796,0.035558,-0.060972,0.019153,-0.445382,-0.895136,-0.035740,-0.097053,-0.038046,-22.399023,-12.108225,-36.770325,,,,,,,
1504280163.655742,0.022324,0.463139,2.954737,0.156609,0.084457,-0.024750,0.019970,-0.446758,-0.894432,-0.036862,-0.095753,-0.041939,-22.399023,-12.108225,-36.770325,,,,,,,
1504280163.665752,0.023328,0.464596,2.954811,0.138414,0.105871,0.021079,0.020854,-0.448061,-0.893760,-0.041209,-0.090864,-0.046731,-22.249136,-12.331659,-37.218292,,,,,,,
1504280163.675761,0.024100,0.465867,2.955276,0.122159,0.093187,0.050961,0.021530,-0.449197,-0.893173,-0.035995,-0.083930,-0.053406,-22.249136,-12.331659,-37.218292,,,,,,,
1504280163.685771,0.023726,0.467977,2.956322,0.123980,0.064377,0.069165,0.021173,-0.451081,-0.892232,-0.024713,-0.071120,-0.072109,-22.248907,-12.331964,-37.068268,,,,,,,
1504280163.695781,0.023772,0.469433,2.957263,0.151412,0.041747,0.094870,0.021199,-0.452381,-0.891573,-0.014821,-0.058575,-0.083296,-22.248907,-12.331964,-37.068268,,,,,,,
1504280163.705791,0.023436,0.471419,2.958649,0.214012,0.027330,0.141969,0.020877,-0.454151,-0.890680,-0.011035,-0.047482,-0.083303,-22.173498,-12.631174,-37.290833,,,,,,,
1504280163.715801,0.022826,0.474206,2.960774,0.295914,0.040434,0.213604,0.020306,-0.456632,-0.889424,-0.011318,-0.039309,-0.085643,-22.173498,-12.631174,-37.290833,,,,,,,
1504280163.725811,0.021621,0.477764,2.963895,0.362002,0.073917,0.279841,0.019198,-0.459795,-0.887818,-0.016467,-0.038466,-0.081543,-21.948538,-12.480616,-37.066406,,,,,,,
1504280163.735821,0.021086,0.481614,2.967345,0.378127,0.116363,0.323558,0.018686,-0.463210,-0.886051,-0.020945,-0.038712,-0.079509,-21.948538,-12.480616,-37.066406,,,,,,,
1504280163.745831,0.020811,0.485202,2.971032,0.338870,0.151838,0.336236,0.018408,-0.466387,-0.884389,-0.017569,-0.042707,-0.086848,-21.872519,-12.705881,-36.764526,,,,,,,
1504280163.755841,0.020714,0.487910,2.974708,0.237672,0.166533,0.327496,0.018296,-0.468781,-0.883125,-0.005799,-0.048080,-0.100014,-21.872519,-12.705881,-36.764526,,,,,,,
1504280163.765849,0.020879,0.489612,2.978179,0.140844,0.185469,0.304879,0.018425,-0.470284,-0.882323,0.006035,-0.047615,-0.123262,-22.021688,-13.081400,-36.837097,,,,,,,
1504280163.775859,0.021266,0.490447,2.981641,0.057759,0.206394,0.311103,0.018758,-0.471020,-0.881923,0.021541,-0.037937,-0.137334,-22.021688,-13.081400,-36.837097,,,,,,,
1504280163.785869,0.021430,0.490606,2.985561,-0.007650,0.196226,0.360108,0.018901,-0.471160,-0.881845,0.037069,-0.027848,-0.135138,-21.872213,-12.781031,-36.688965,,,,,,,
1504280163.795848,0.020913,0.490254,2.990255,-0.053127,0.158163,0.432679,0.018448,-0.470850,-0.882020,0.040130,-0.018118,-0.139205,-21.872213,-12.781031,-36.688965,,,,,,,
1504280163.805858,0.019473,0.489750,2.995715,-0.062446,0.097439,0.492545,0.017183,-0.470405,-0.882283,0.031264,-0.007851,-0.146205,-21.647451,-12.779718,-36.838440,,,,,,,
1504280163.815868,0.017339,0.489401,3.001473,-0.029866,0.044940,0.507638,0.015303,-0.470098,-0.882482,0.012880,0.009511,-0.147471,-21.647451,-12.779718,-36.838440,,,,,,,
1504280163.825877,0.015043,0.489480,3.006970,0.007500,0.026553,0.473578,0.013276,-0.470167,-0.882478,-0.006059,0.047285,-0.147796,-21.798132,-12.330988,-36.542175,,,,,,,
1504280163.835887,0.012726,0.487731,3.012003,0.071922,0.041005,0.410690,0.011242,-0.468623,-0.883327,-0.018307,0.089320,-0.146260,-21.798132,-12.330988,-36.542175,,,,,,,
1504280163.845897,0.011276,0.488835,3.016225,0.113875,0.054561,0.363773,0.009955,-0.469598,-0.882824,-0.020591,0.123818,-0.133350,-22.023504,-12.182001,-36.543854,,,,,,,
1504280163.855907,0.009871,0.490071,3.020227,0.118133,0.046013,0.352054,0.008709,-0.470688,-0.882257,-0.016323,0.152268,-0.121055,-22.023504,-12.182001,-36.543854,,,,,,,
1504280163.865916,0.008362,0.491274,3.024203,0.116969,0.033237,0.351007,0.007373,-0.471749,-0.881702,-0.020999,0.166589,-0.121762,-21.873236,-12.331171,-36.617371,,,,,,,
1504280163.875926,0.005953,0.486556,3.028481,0.130748,0.022475,0.340383,0.005262,-0.467584,-0.883933,-0.022260,0.173349,-0.116296,-21.873236,-12.331171,-36.617371,,,,,,,
1504280163.885936,0.004375,0.488041,3.032032,0.152118,0.003157,0.303095,0.003865,-0.468897,-0.883245,-0.016926,0.184732,-0.096141,-21.798239,-12.330835,-36.617188,,,,,,,
1504280163.895947,0.002831,0.489787,3.035056,0.180987,-0.018344,0.256217,0.002498,-0.470438,-0.882429,-0.008159,0.192988,-0.076158,-21.798239,-12.330835,-36.617188,,,,,,,
1504280163.905956,0.001332,0.491817,3.037584,0.209883,-0.034520,0.212533,0.001174,-0.472229,-0.881475,0.005235,0.200821,-0.061655,-21.873236,-12.331171,-36.617371,,,,,,,
1504280163.915966,-0.000036,0.494080,3.039742,0.229242,-0.032519,0.184810,-0.000032,-0.474222,-0.880405,0.012727,0.201243,-0.037564,-21.873236,-12.331171,-36.617371,,,,,,,
1504280163.925976,-0.001178,0.496365,3.041706,0.225177,-0.016486,0.169831,-0.001035,-0.476232,-0.879319,0.021238,0.193487,-0.014541,-21.798574,-12.106134,-36.468872,,,,,,,
1504280163.935986,-0.002059,0.498404,3.043558,0.194456,0.005089,0.160133,-0.001809,-0.478024,-0.878345,0.027657,0.180920,0.004917,-21.798574,-12.106134,-36.468872,,,,,,,
1504280163.945996,-0.001401,0.495247,3.044697,0.136979,0.022630,0.151461,-0.001232,-0.475249,-0.879850,0.033154,0.162597,0.021253,-22.023458,-12.107294,-36.394409,,,,,,,
1504280163.956004,-0.001755,0.495961,3.046311,0.047623,0.047889,0.138452,-0.001543,-0.475877,-0.879510,0.040041,0.146440,0.031839,-22.023458,-12.107294,-36.394409,,,,,,,
1504280163.966014,-0.001774,0.495615,3.047810,-0.063076,0.075449,0.129673,-0.001561,-0.475573,-0.879675,0.047154,0.129214,0.040640,-22.173468,-12.107965,-36.394775,,,,,,,
1504280163.976024,-0.001416,0.494147,3.049177,-0.171581,0.108324,0.117685,-0.001247,-0.474280,-0.880373,0.046352,0.115028,0.043642,-22.173468,-12.107965,-36.394775,,,,,,,
1504280163.986034,-0.000681,0.491774,3.050388,-0.257701,0.136754,0.102542,-0.000601,-0.472190,-0.881496,0.040533,0.106986,0.046856,-21.948462,-12.106958,-36.394226,,,,,,,
1504280163.996043,0.000344,0.488988,3.051484,-0.282028,0.159339,0.096056,0.000304,-0.469733,-0.882809,0.036989,0.111212,0.049908,-21.948462,-12.106958,-36.394226,,,,,,,
1504280164.006053,0.001399,0.486273,3.052611,-0.266086,0.154940,0.101428,0.001237,-0.467334,-0.884080,0.030364,0.114948,0.056520,-21.799215,-11.806284,-36.396118,,,,,,,
1504280164.016063,0.002218,0.483963,3.053819,-0.216157,0.131080,0.106894,0.001963,-0.465290,-0.885156,0.029027,0.119969,0.066339,-21.799215,-11.806284,-36.396118,,,,,,,
1504280164.026073,0.002723,0.482366,3.055063,-0.138528,0.101665,0.111350,0.002413,-0.463877,-0.885897,0.024687,0.124765,0.062364,-21.350348,-11.578516,-36.771698,,,,,,,
1504280164.036083,0.002784,0.481615,3.056391,-0.054646,0.056209,0.120115,0.002467,-0.463211,-0.886244,0.024678,0.121277,0.066207,-21.350348,-11.578516,-36.771698,,,,,,,
1504280164.046093,0.002283,0.481485,3.057840,0.001410,0.001391,0.130983,0.002023,-0.463095,-0.886306,0.025183,0.118338,0.075332,-21.500494,-11.429483,-36.623199,,,,,,,
1504280164.056103,0.001139,0.481753,3.059368,0.026541,-0.055297,0.135396,0.001009,-0.463334,-0.886183,0.026182,0.109269,0.077284,-21.500494,-11.429483,-36.623199,,,,,,,
1504280164.066113,-0.000388,0.481751,3.060807,-0.007847,-0.093363,0.123662,-0.000344,-0.463331,-0.886185,0.029778,0.094786,0.076188,-21.575506,-11.429819,-36.623383,,,,,,,
1504280164.076092,-0.001945,0.481175,3.061942,-0.078168,-0.101276,0.091532,-0.001725,-0.462821,-0.886450,0.032456,0.083411,0.071417,-21.575506,-11.429819,-36.623383,,,,,,,
1504280164.086102,-0.001625,0.478306,3.061945,-0.170542,-0.070622,0.047549,-0.001443,-0.460276,-0.887775,0.032906,0.070398,0.063831,-21.351034,-11.353357,-36.848389,,,,,,,
1504280164.096111,-0.001937,0.476043,3.062083,-0.243437,-0.008170,0.002482,-0.001722,-0.458266,-0.888813,0.028455,0.061263,0.050160,-21.351034,-11.353357,-36.848389,,,,,,,
1504280164.106120,-0.001373,0.473341,3.061864,-0.274739,0.063511,-0.024384,-0.001222,-0.455862,-0.890050,0.019242,0.058737,0.042348,-21.575354,-11.355265,-36.398926,,,,,,,
1504280164.116130,-0.000120,0.470398,3.061472,-0.297708,0.119123,-0.036263,-0.000107,-0.453241,-0.891388,0.010925,0.058450,0.042679,-21.575354,-11.355265,-36.398926,,,,,,,
1504280164.126140,0.001627,0.466505,3.060938,-0.258133,0.131588,-0.038352,0.001453,-0.449768,-0.893144,0.004407,0.056793,0.046312,-21.126486,-11.127497,-36.774506,,,,,,,
1504280164.136150,0.003000,0.464277,3.060533,-0.207088,0.111985,-0.036094,0.002682,-0.447777,-0.894141,0.006397,0.056206,0.044624,-21.126486,-11.127497,-36.774506,,,,,,,
1504280164.146159,0.003906,0.462815,3.060179,-0.126428,0.061233,-0.031595,0.003495,-0.446468,-0.894793,0.011886,0.060116,0.051897,-21.052237,-10.827158,-36.776581,,,,,,,
1504280164.156169,0.004161,0.462024,3.059861,-0.061903,-0.006435,-0.028162,0.003724,-0.445761,-0.895144,0.022246,0.059271,0.060260,-21.052237,-10.827158,-36.776581,,,,,,,
1504280164.166179,0.004977,0.460864,3.059023,-0.021999,-0.073897,-0.024743,0.004458,-0.444722,-0.895657,0.028852,0.054524,0.061459,-21.127798,-10.602488,-36.778442,,,,,,,
1504280164.176189,0.003929,0.460815,3.058671,0.003165,-0.135898,-0.035264,0.003519,-0.444679,-0.895683,0.036200,0.046195,0.056557,-21.127798,-10.602488,-36.778442,,,,,,,
1504280164.186198,0.002498,0.460817,3.058110,-0.003459,-0.176315,-0.055485,0.002238,-0.444680,-0.895687,0.040639,0.037484,0.050411,-21.052053,-10.677912,-36.402710,,,,,,,
1504280164.196208,0.001041,0.460872,3.057371,0.008363,-0.174267,-0.069344,0.000932,-0.444729,-0.895664,0.046447,0.028790,0.037709,-21.052053,-10.677912,-36.402710,,,,,,,
1504280164.206218,0.001666,0.460926,3.055833,0.019427,-0.125327,-0.070485,0.001492,-0.444778,-0.895640,0.040546,0.021957,0.036692,-21.127539,-10.528086,-36.479034,,,,,,,
1504280164.216228,0.001169,0.461235,3.055181,0.033705,-0.063658,-0.053491,0.001047,-0.445054,-0.895503,0.033636,0.016969,0.046046,-21.127539,-10.528086,-36.479034,,,,,,,
1504280164.226238,0.001140,0.461590,3.054796,0.039363,-0.007254,-0.027963,0.001021,-0.445373,-0.895345,0.027162,0.009582,0.050069,-21.202917,-10.378428,-36.480347,,,,,,,
1504280164.236248,0.001467,0.462162,3.054662,0.059891,0.037311,-0.007725,0.001314,-0.445885,-0.895090,0.020766,0.001610,0.048395,-21.202917,-10.378428,-36.480347,,,,,,,
1504280164.246258,0.002977,0.463849,3.054210,0.070707,0.058535,-0.001343,0.002662,-0.447393,-0.894333,0.021462,-0.006098,0.047089,-21.352575,-10.603800,-36.629028,,,,,,,
1504280164.256268,0.003434,0.464646,3.054198,0.083347,0.038184,-0.001285,0.003070,-0.448106,-0.893975,0.028043,-0.014311,0.048714,-21.352575,-10.603800,-36.629028,,,,,,,
1504280164.266278,0.003564,0.465617,3.054187,0.103323,0.001788,-0.000119,0.003184,-0.448974,-0.893539,0.035130,-0.023362,0.039261,-21.352911,-10.379099,-36.480713,,,,,,,
1504280164.276286,0.003257,0.466856,3.054182,0.128592,-0.041043,-0.001067,0.002909,-0.450081,-0.892983,0.042822,-0.029136,0.028618,-21.352911,-10.379099,-36.480713,,,,,,,
1504280164.286296,0.004446,0.469902,3.053252,0.170962,-0.085061,-0.007328,0.003964,-0.452799,-0.891604,0.047305,-0.030356,0.024294,-21.126745,-10.753397,-36.327301,,,,,,,
1504280164.296306,0.003408,0.471792,3.053097,0.194228,-0.116146,-0.015772,0.003036,-0.454483,-0.890750,0.050294,-0.029953,0.016086,-21.126745,-10.753397,-36.327301,,,,,,,
1504280164.306315,0.002110,0.474086,3.052895,0.240951,-0.145300,-0.017774,0.001878,-0.456526,-0.889708,0.052276,-0.028643,0.013442,-20.976553,-10.827723,-36.326385,,,,,,,
1504280164.316324,0.000702,0.476572,3.052620,0.251594,-0.153903,-0.026280,0.000624,-0.458735,-0.888573,0.052446,-0.025838,0.011024,-20.976553,-10.827723,-36.326385,,,,,,,
1504280164.326334,0.001322,0.480119,3.051315,0.271070,-0.134846,-0.048702,0.001172,-0.461884,-0.886939,0.046145,-0.023345,0.002036,-20.976339,-10.828012,-36.176392,,,,,,,
1504280164.336344,0.000430,0.482742,3.050582,0.258485,-0.120868,-0.070097,0.000381,-0.464209,-0.885725,0.039643,-0.023233,-0.002473,-20.976339,-10.828012,-36.176392,,,,,,,
1504280164.346323,-0.000321,0.485137,3.049680,0.231910,-0.115310,-0.080827,-0.000284,-0.466330,-0.884611,0.037591,-0.022531,-0.013140,-20.750174,-11.202311,-36.022980,,,,,,,
1504280164.356333,-0.001003,0.487144,3.048802,0.189273,-0.107504,-0.076645,-0.000887,-0.468104,-0.883673,0.035463,-0.023519,-0.029123,-20.750174,-11.202311,-36.022980,,,,,,,
1504280164.366343,-0.000412,0.488849,3.047458,0.142404,-0.092201,-0.067151,-0.000363,-0.469610,-0.882874,0.031339,-0.023768,-0.037948,-21.124304,-11.504145,-35.946655,,,,,,,
1504280164.376352,-0.000830,0.490008,3.046775,0.108423,-0.067420,-0.059782,-0.000732,-0.470633,-0.882329,0.026611,-0.019494,-0.052211,-21.124304,-11.504145,-35.946655,,,,,,,
1504280164.386362,-0.000886,0.490894,3.046030,0.082084,-0.030963,-0.068431,-0.000781,-0.471414,-0.881912,0.023425,-0.011511,-0.068574,-20.749640,-11.502008,-36.170776,,,,,,,
1504280164.396372,-0.000612,0.491755,3.045199,0.089780,-0.006511,-0.074865,-0.000539,-0.472174,-0.881505,0.019918,-0.000300,-0.085490,-20.749640,-11.502008,-36.170776,,,,,,,
1504280164.406382,0.000607,0.491096,3.043907,0.116576,0.002876,-0.087647,0.000535,-0.471593,-0.881816,0.019500,0.008107,-0.098896,-20.823706,-11.653101,-35.794800,,,,,,,
1504280164.416391,0.001077,0.492480,3.042584,0.142159,-0.023935,-0.125982,0.000949,-0.472813,-0.881162,0.019757,0.006184,-0.109209,-20.823706,-11.653101,-35.794800,,,,,,,
1504280164.426401,0.001315,0.493857,3.040733,0.139824,-0.080341,-0.176055,0.001158,-0.474026,-0.880510,0.026567,0.010754,-0.123030,-20.674307,-11.502115,-35.945557,,,,,,,
1504280164.436411,0.001212,0.495167,3.038202,0.125732,-0.147292,-0.238938,0.001067,-0.475178,-0.879889,0.026216,0.023854,-0.148233,-20.674307,-11.502115,-35.945557,,,,,,,
1504280164.446421,0.000872,0.496165,3.035028,0.089342,-0.194889,-0.292287,0.000767,-0.476056,-0.879414,0.019634,0.046796,-0.171901,-20.673620,-11.727274,-35.868866,,,,,,,
1504280164.456431,0.000447,0.496533,3.031420,0.016748,-0.218768,-0.322258,0.000393,-0.476380,-0.879239,0.011143,0.064347,-0.185351,-20.673620,-11.727274,-35.868866,,,,,,,
1504280164.466440,0.000031,0.496108,3.027739,-0.062154,-0.211726,-0.321340,0.000028,-0.476006,-0.879442,0.002170,0.077080,-0.192213,-20.822790,-11.878550,-35.568085,,,,,,,
1504280164.476450,-0.000181,0.494665,3.024215,-0.170795,-0.177815,-0.304509,-0.000160,-0.474737,-0.880128,-0.013024,0.086965,-0.194411,-20.822790,-11.878550,-35.568085,,,,,,,
1504280164.486460,-0.000119,0.492290,3.020934,-0.257002,-0.137700,-0.283381,-0.000105,-0.472645,-0.881253,-0.028643,0.100758,-0.186329,-20.822866,-11.803690,-35.493683,,,,,,,
1504280164.496470,0.000443,0.489481,3.017953,-0.282149,-0.062929,-0.255804,0.000391,-0.470168,-0.882577,-0.038096,0.118743,-0.179587,-20.822866,-11.803690,-35.493683,,,,,,,
1504280164.506479,0.001829,0.486985,3.015311,-0.233454,0.041067,-0.226016,0.001616,-0.467964,-0.883746,-0.046004,0.129356,-0.163922,-20.671926,-12.178019,-35.490509,,,,,,,
1504280164.516489,0.001835,0.479520,3.014012,-0.149899,0.112784,-0.188633,0.001628,-0.461353,-0.887215,-0.055980,0.131641,-0.121071,-20.671926,-12.178019,-35.490509,,,,,,,
1504280164.526499,0.003917,0.478575,3.012153,-0.078487,0.121756,-0.159705,0.003477,-0.460515,-0.887645,-0.056226,0.121251,-0.089268,-20.447287,-12.176554,-35.714935,,,,,,,
1504280164.536509,0.005783,0.478122,3.010392,-0.031734,0.098991,-0.157449,0.005135,-0.460113,-0.887846,-0.050499,0.103500,-0.076510,-20.447287,-12.176554,-35.714935,,,,,,,
1504280164.546518,0.007501,0.477868,3.008464,-0.028594,0.078740,-0.177689,0.006660,-0.459887,-0.887953,-0.039116,0.084643,-0.069185,-20.372656,-12.026224,-35.715881,,,,,,,
1504280164.556528,0.007777,0.474121,3.006878,-0.055264,0.065125,-0.206527,0.006919,-0.456557,-0.889667,-0.036201,0.068587,-0.059750,-20.372656,-12.026224,-35.715881,,,,,,,
1504280164.566538,0.009405,0.473122,3.004534,-0.112968,0.053879,-0.206607,0.008372,-0.455668,-0.890110,-0.038417,0.065592,-0.052761,-20.073156,-11.874720,-35.791260,,,,,,,
1504280164.576548,0.010869,0.471593,3.002439,-0.163269,0.051069,-0.180004,0.009682,-0.454306,-0.890793,-0.042062,0.062506,-0.049652,-20.073156,-11.874720,-35.791260,,,,,,,
1504280164.586557,0.012259,0.469620,3.000706,-0.201737,0.063075,-0.149137,0.010932,-0.452547,-0.891673,-0.054205,0.062731,-0.042760,-20.297857,-11.950891,-35.716278,,,,,,,
1504280164.596567,0.011046,0.464741,3.000361,-0.200841,0.057699,-0.128838,0.009874,-0.448191,-0.893883,-0.059480,0.069544,-0.026893,-20.297857,-11.950891,-35.716278,,,,,,,
1504280164.606577,0.012101,0.462785,2.999040,-0.183947,0.041566,-0.119174,0.010828,-0.446442,-0.894747,-0.062113,0.079086,-0.013136,-19.847860,-11.948862,-35.715149,,,,,,,
1504280164.616587,0.013053,0.461313,2.997675,-0.131697,0.032619,-0.127607,0.011688,-0.445124,-0.895393,-0.068604,0.086634,-0.005059,-19.847860,-11.948862,-35.715149,,,,,,,
1504280164.626566,0.013985,0.460354,2.996080,-0.079433,0.017293,-0.148837,0.012528,-0.444265,-0.895808,-0.076478,0.094534,0.011668,-19.923529,-11.499796,-35.418701,,,,,,,
1504280164.636576,0.011459,0.456755,2.995703,-0.057195,-0.012733,-0.169016,0.010284,-0.441038,-0.897430,-0.075546,0.097822,0.028533,-19.923529,-11.499796,-35.418701,,,,,,,
1504280164.646586,0.012083,0.456219,2.993695,-0.050844,-0.027689,-0.182855,0.010847,-0.440557,-0.897659,-0.072523,0.097128,0.032547,-19.848532,-11.723703,-35.791840,,,,,,,
1504280164.656595,0.012817,0.455412,2.991744,-0.085930,-0.005035,-0.171215,0.011510,-0.439832,-0.898006,-0.064687,0.088132,0.032406,-19.848532,-11.723703,-35.791840,,,,,,,
1504280164.666605,0.013905,0.454309,2.990006,-0.114419,0.047393,-0.151076,0.012494,-0.438841,-0.898478,-0.057233,0.074935,0.032282,-19.548986,-11.497507,-35.717804,,,,,,,
1504280164.676615,0.013083,0.451314,2.989557,-0.138684,0.097634,-0.128784,0.011772,-0.436148,-0.899798,-0.055245,0.064306,0.039202,-19.548986,-11.497507,-35.717804,,,,,,,
1504280164.686625,0.014791,0.449889,2.988295,-0.138582,0.121059,-0.111747,0.013318,-0.434866,-0.900397,-0.048948,0.058370,0.043677,-19.548803,-11.572519,-35.717224,,,,,,,
1504280164.696634,0.016444,0.448704,2.987175,-0.103507,0.112232,-0.098861,0.014816,-0.433798,-0.900888,-0.035644,0.058005,0.047281,-19.548803,-11.572519,-35.717224,,,,,,,
1504280164.706644,0.017638,0.448055,2.986156,-0.053820,0.059601,-0.091211,0.015896,-0.433213,-0.901151,-0.024288,0.058809,0.060636,-19.699392,-11.422892,-35.868713,,,,,,,
1504280164.716654,0.017642,0.446962,2.985350,0.008597,-0.009110,-0.096317,0.015908,-0.432228,-0.901624,-0.013726,0.060310,0.070112,-19.699392,-11.422892,-35.868713,,,,,,,
1504280164.726664,0.017456,0.447404,2.984155,0.052827,-0.090446,-0.109973,0.015737,-0.432626,-0.901436,-0.006200,0.063501,0.072426,-19.324255,-11.570902,-36.016663,,,,,,,
1504280164.736673,0.016521,0.448116,2.982804,0.076795,-0.170549,-0.123666,0.014889,-0.433268,-0.901142,-0.000744,0.063151,0.077686,-19.324255,-11.570902,-36.016663,,,,,,,
1504280164.746683,0.015083,0.448775,2.981313,0.061553,-0.217295,-0.137486,0.013589,-0.433862,-0.900877,0.000113,0.059610,0.076917,-19.548529,-11.498102,-35.417786,,,,,,,
1504280164.756693,0.013551,0.449136,2.979702,0.028485,-0.222341,-0.147141,0.012207,-0.434187,-0.900740,-0.003296,0.050520,0.073409,-19.548529,-11.498102,-35.417786,,,,,,,
1504280164.766703,0.012193,0.448986,2.978044,-0.025735,-0.199514,-0.149410,0.010984,-0.434052,-0.900821,-0.007627,0.043946,0.077380,-19.098684,-11.570642,-35.641113,,,,,,,
1504280164.776713,0.011276,0.448330,2.976386,-0.074433,-0.151162,-0.148513,0.010161,-0.433461,-0.901115,-0.018203,0.043111,0.073204,-19.098684,-11.570642,-35.641113,,,,,,,
1504280164.786722,0.009623,0.446969,2.975426,-0.105056,-0.097662,-0.127309,0.008678,-0.432234,-0.901720,-0.026469,0.043685,0.071077,-19.473379,-11.647470,-35.566467,,,,,,,
1504280164.796732,0.009506,0.445803,2.974262,-0.118685,-0.049627,-0.098597,0.008577,-0.431182,-0.902224,-0.039690,0.042709,0.073245,-19.548605,-11.647516,-35.716675,,,,,,,
1504280164.806742,0.009698,0.444582,2.973382,-0.122736,-0.009123,-0.077327,0.008755,-0.430081,-0.902748,-0.049267,0.042446,0.068748,-19.548605,-11.647516,-35.716675,,,,,,,
1504280164.816752,0.010181,0.443343,2.972591,-0.123560,0.023913,-0.073117,0.009196,-0.428962,-0.903276,-0.051875,0.043601,0.067552,-19.549215,-11.272959,-35.494476,,,,,,,
1504280164.826761,0.008977,0.441691,2.972657,-0.124398,0.053738,-0.072098,0.008115,-0.427469,-0.903994,-0.046415,0.041101,0.065477,-19.549215,-11.272959,-35.494476,,,,,,,
1504280164.836771,0.009932,0.440505,2.971977,-0.114743,0.069627,-0.057166,0.008983,-0.426396,-0.904492,-0.040829,0.036748,0.060803,-19.174185,-11.420832,-35.717438,,,,,,,
1504280164.846781,0.010783,0.439373,2.971588,-0.112768,0.066387,-0.030472,0.009759,-0.425372,-0.904966,-0.038766,0.032336,0.060956,-19.174185,-11.420832,-35.717438,,,,,,,
1504280164.856791,0.011349,0.438150,2.971432,-0.124790,0.041958,-0.012304,0.010277,-0.424265,-0.905480,-0.034920,0.021265,0.062508,-19.324362,-11.346506,-35.718353,,,,,,,
1504280164.866800,0.010262,0.437335,2.971930,-0.138992,0.005823,-0.002654,0.009296,-0.423526,-0.905836,-0.029712,0.010028,0.057051,-19.324362,-11.346506,-35.718353,,,,,,,
1504280164.876810,0.009971,0.435850,2.971989,-0.146869,-0.039942,0.005952,0.009039,-0.422181,-0.906466,-0.022604,0.000383,0.050921,-19.324438,-11.271646,-35.643921,,,,,,,
1504280164.886820,0.009266,0.434507,2.972128,-0.132212,-0.070972,0.012436,0.008405,-0.420964,-0.907039,-0.023572,-0.006908,0.046016,-19.324438,-11.271646,-35.643921,,,,,,,
1504280164.896830,0.008547,0.433469,2.972258,-0.092651,-0.061705,0.010354,0.007756,-0.420021,-0.907481,-0.026891,-0.013206,0.041469,-18.874441,-11.269632,-35.642792,,,,,,,
1504280164.906839,0.006923,0.434035,2.972876,-0.048621,-0.027979,0.009306,0.006281,-0.420535,-0.907254,-0.028528,-0.012692,0.045011,-18.874441,-11.269632,-35.642792,,,,,,,
1504280164.916819,0.006817,0.433840,2.973028,-0.009985,0.003665,0.014654,0.006185,-0.420358,-0.907337,-0.034628,-0.010749,0.049900,-19.100302,-10.970484,-35.720612,,,,,,,
1504280164.926828,0.007111,0.433983,2.973159,0.022361,0.043895,0.011437,0.006452,-0.420488,-0.907275,-0.036252,-0.016829,0.049563,-19.100302,-10.970484,-35.720612,,,,,,,
1504280164.936838,0.007831,0.434354,2.973223,0.040872,0.085310,0.002857,0.007104,-0.420825,-0.907114,-0.034204,-0.023236,0.044947,-18.949926,-11.119806,-35.719116,,,,,,,
1504280164.946848,0.007750,0.436425,2.973534,0.040289,0.122633,-0.031363,0.007023,-0.422702,-0.906241,-0.033009,-0.026913,0.043693,-18.949926,-11.119806,-35.719116,,,,,,,
1504280164.956858,0.009408,0.436858,2.972982,0.044859,0.147126,-0.052747,0.008524,-0.423095,-0.906045,-0.029261,-0.033982,0.035180,-19.024176,-11.420145,-35.717072,,,,,,,
1504280164.966868,0.011350,0.437325,2.972388,0.053633,0.176891,-0.052784,0.010282,-0.423518,-0.905830,-0.021298,-0.042150,0.025626,-19.024176,-11.420145,-35.717072,,,,,,,
1504280164.976877,0.013560,0.438125,2.971900,0.091151,0.207470,-0.038897,0.012278,-0.424242,-0.905466,-0.028529,-0.050444,0.012979,-18.874411,-11.194925,-35.493378,,,,,,,
1504280164.986887,0.014782,0.441073,2.972208,0.134929,0.231570,-0.003637,0.013367,-0.426910,-0.904195,-0.029953,-0.046722,0.009038,-18.874411,-11.194925,-35.493378,,,,,,,
1504280164.996897,0.017031,0.442838,2.972510,0.185979,0.238563,0.040203,0.015387,-0.428506,-0.903408,-0.027228,-0.046134,0.006161,-18.649252,-11.343607,-35.641693,,,,,,,
1504280165.006907,0.018994,0.445223,2.973275,0.257130,0.224079,0.084115,0.017142,-0.430659,-0.902352,-0.024313,-0.051824,0.004647,-18.649252,-11.343607,-35.641693,,,,,,,
1504280165.016916,0.020544,0.448253,2.974487,0.315434,0.202245,0.124816,0.018513,-0.433392,-0.901015,-0.017308,-0.053653,0.002242,-18.499365,-11.342798,-35.716339,,,,,,,
1504280165.026926,0.021224,0.453468,2.976225,0.352282,0.158213,0.156980,0.019078,-0.438086,-0.898731,-0.010045,-0.054514,-0.002392,-18.499365,-11.342798,-35.716339,,,,,,,
1504280165.036936,0.021525,0.457127,2.978061,0.362346,0.095239,0.177389,0.019313,-0.441372,-0.897116,-0.001979,-0.061863,-0.005578,-18.198996,-11.491449,-35.714478,,,,,,,
1504280165.046946,0.021125,0.460863,2.980067,0.368192,0.034437,0.191382,0.018919,-0.444721,-0.895469,0.005937,-0.069912,-0.024056,-18.198996,-11.491449,-35.714478,,,,,,,
1504280165.056955,0.020053,0.464365,2.982205,0.338859,-0.026069,0.199977,0.017928,-0.447855,-0.893926,0.010941,-0.079488,-0.033427,-18.273321,-11.716928,-35.637939,,,,,,,
1504280165.066965,0.018725,0.469155,2.984304,0.293645,-0.073656,0.207453,0.016700,-0.452133,-0.891794,0.013054,-0.085267,-0.043295,-18.273321,-11.716928,-35.637939,,,,,,,
1504280165.076975,0.016936,0.471960,2.986614,0.276594,-0.069256,0.210617,0.015084,-0.454633,-0.890551,0.018241,-0.088748,-0.069959,-18.421621,-12.168360,-35.259949,,,,,,,
1504280165.086985,0.015598,0.474823,2.988905,0.288808,-0.010747,0.208401,0.013872,-0.457181,-0.889265,0.015410,-0.083361,-0.086000,-18.421621,-12.168360,-35.259949,,,,,,,
1504280165.096995,0.015024,0.477969,2.991198,0.319301,0.067854,0.210450,0.013340,-0.459976,-0.887831,0.005688,-0.069824,-0.088899,-18.046820,-12.091669,-35.259583,,,,,,,
1504280165.107004,0.015203,0.481437,2.993663,0.349772,0.153898,0.228497,0.013474,-0.463053,-0.886228,0.001052,-0.063161,-0.097094,-18.046820,-12.091669,-35.259583,,,,,,,
1504280165.117014,0.016101,0.485280,2.996461,0.387629,0.238800,0.261502,0.014242,-0.466456,-0.884430,-0.002553,-0.058401,-0.113953,-18.196142,-12.317499,-35.183258,,,,,,,
1504280165.127024,0.017306,0.488930,2.999613,0.346125,0.270014,0.290195,0.015277,-0.469681,-0.882704,-0.000858,-0.059478,-0.120592,-18.196142,-12.317499,-35.183258,,,,,,,
1504280165.137034,0.018084,0.491728,3.002964,0.245364,0.218618,0.301852,0.015940,-0.472150,-0.881374,0.014944,-0.066913,-0.126560,-17.971167,-12.391184,-35.332153,,,,,,,
1504280165.147043,0.018133,0.493185,3.006241,0.105028,0.137739,0.285741,0.015972,-0.473434,-0.880684,0.041462,-0.069443,-0.157066,-17.971167,-12.391184,-35.332153,,,,,,,
1504280165.157053,0.017364,0.493200,3.009220,-0.038586,0.037723,0.254714,0.015294,-0.473447,-0.880690,0.062236,-0.057330,-0.175676,-17.821554,-12.240503,-35.332916,,,,,,,
1504280165.167063,0.015710,0.491984,3.012010,-0.150299,-0.056184,0.241905,0.013846,-0.472375,-0.881289,0.073404,-0.031638,-0.180464,-17.821554,-12.240503,-35.332916,,,,,,,
1504280165.177073,0.013228,0.490026,3.014890,-0.213870,-0.126003,0.254727,0.011671,-0.470648,-0.882244,0.070727,0.005698,-0.190297,-18.271856,-12.167383,-35.409576,,,,,,,
1504280165.187082,0.010240,0.488092,3.018120,-0.179048,-0.149774,0.294323,0.009044,-0.468941,-0.883183,0.043950,0.062325,-0.190593,-18.271856,-12.167383,-35.409576,,,,,,,
1504280165.197092,0.007102,0.487205,3.022147,-0.058596,-0.112490,0.376656,0.006276,-0.468158,-0.883623,0.013942,0.116778,-0.183150,-18.196325,-12.242487,-35.183807,,,,,,,
1504280165.207071,0.004153,0.488048,3.027118,0.132516,-0.044886,0.459058,0.003668,-0.468903,-0.883242,-0.021384,0.150162,-0.160764,-18.196325,-12.242487,-35.183807,,,,,,,
1504280165.217081,0.001540,0.490608,3.032801,0.290667,0.017694,0.510457,0.001358,-0.471162,-0.882046,-0.050858,0.163514,-0.123982,-18.347082,-11.943171,-35.186432,,,,,,,
1504280165.227091,-0.002221,0.490022,3.039139,0.346284,0.027903,0.492397,-0.001959,-0.470645,-0.882321,-0.052423,0.150424,-0.095219,-18.347082,-11.943171,-35.186432,,,,,,,
1504280165.237101,-0.004846,0.492968,3.044195,0.274554,-0.046026,0.423022,-0.004269,-0.473243,-0.880922,-0.033573,0.138846,-0.082259,-18.345800,-12.318613,-34.958649,,,,,,,
1504280165.247110,-0.007957,0.494757,3.048185,0.142998,-0.148202,0.323706,-0.007003,-0.474818,-0.880056,-0.005815,0.122279,-0.096552,-18.345800,-12.318613,-34.958649,,,,,,,
1504280165.257120,-0.011421,0.495031,3.051019,-0.004395,-0.228937,0.225392,-0.010050,-0.475059,-0.879897,0.015040,0.114952,-0.107606,-18.795904,-12.320490,-35.034729,,,,,,,
1504280165.267130,-0.013997,0.488694,3.052463,-0.125015,-0.273681,0.154815,-0.012358,-0.469474,-0.882860,0.025054,0.112479,-0.093458,-18.795904,-12.320490,-35.034729,,,,,,,
1504280165.277140,-0.017243,0.486838,3.053952,-0.198255,-0.241085,0.131148,-0.015239,-0.467833,-0.883685,0.024165,0.123092,-0.085202,-18.797293,-11.720636,-34.964264,,,,,,,
