timestamp(unix),attitude_roll(radians),attitude_pitch(radians),attitude_yaw(radians),rotation_rate_x(radians/s),rotation_rate_y(radians/s),rotation_rate_z(radians/s),gravity_x(G),gravity_y(G),gravity_z(G),user_acc_x(G),user_acc_y(G),user_acc_z(G),magnetic_field_x(microteslas),magnetic_field_y(microteslas),magnetic_field_z(microteslas),latitude(degree),longitude(degree),altitude(meter),speed(m/s),course(degree),timestamp(unix),User Mark
1504280469.198794,0.012194,0.475093,-2.958843,-0.118802,0.231298,0.016391,0.010844,-0.457422,-0.889184,-0.014994,0.013833,0.007104,-22.615133,-16.456568,-38.088287,,,,,,,
1504280469.208804,0.013392,0.474121,-2.958793,-0.045068,0.097517,-0.007793,0.011914,-0.456556,-0.889615,-0.006879,0.016874,0.000134,-22.615133,-16.456568,-38.088287,,,,,,,
1504280469.218813,0.013573,0.474247,-2.959060,0.033035,-0.021387,-0.027729,0.012075,-0.456669,-0.889555,0.004970,0.017368,-0.010210,-22.465841,-16.305445,-38.314026,,,,,,,
1504280469.228823,0.012877,0.475065,-2.959484,0.095360,-0.106072,-0.038145,0.011450,-0.457396,-0.889189,0.008142,0.019072,-0.004792,-22.465841,-16.305445,-38.314026,,,,,,,
1504280469.238833,0.011670,0.476252,-2.959881,0.124885,-0.145749,-0.031620,0.010371,-0.458452,-0.888659,0.002904,0.019304,0.000979,-22.390356,-16.455256,-38.237701,,,,,,,
1504280469.248843,0.010215,0.477277,-2.960074,0.121677,-0.138277,-0.018828,0.009073,-0.459362,-0.888203,-0.004938,0.012936,0.000553,-22.390356,-16.455256,-38.237701,,,,,,,
1504280469.258852,0.009160,0.478325,-2.960148,0.096317,-0.097592,-0.002933,0.008132,-0.460293,-0.887730,-0.012541,0.006573,0.003559,-22.539495,-16.531824,-37.787506,,,,,,,
1504280469.268862,0.008566,0.479019,-2.960129,0.060437,-0.044023,0.003315,0.007601,-0.460909,-0.887415,-0.017733,-0.000379,0.002481,-22.539495,-16.531824,-37.787506,,,,,,,
1504280469.278872,0.008579,0.479372,-2.960090,0.026795,0.019124,0.004213,0.007612,-0.461222,-0.887252,-0.020704,-0.001821,-0.000413,-22.764639,-16.607401,-38.012512,,,,,,,
1504280469.288882,0.008627,0.479383,-2.959819,-0.013396,0.063139,0.004067,0.007654,-0.461232,-0.887247,-0.020121,-0.000438,0.002511,-22.764639,-16.607401,-38.012512,,,,,,,
1504280469.298892,0.008964,0.478972,-2.959610,-0.047320,0.085799,-0.003501,0.007955,-0.460867,-0.887433,-0.021337,0.000754,0.000196,-22.688772,-16.907206,-37.935089,,,,,,,
1504280469.308901,0.009447,0.478193,-2.959524,-0.069717,0.081727,-0.012070,0.008387,-0.460175,-0.887789,-0.018397,0.001679,-0.007490,-22.688772,-16.907206,-37.935089,,,,,,,
1504280469.318911,0.009868,0.477304,-2.959605,-0.082616,0.060533,-0.026997,0.008765,-0.459386,-0.888194,-0.016180,0.000615,-0.005025,-22.690207,-16.606302,-38.387329,,,,,,,
1504280469.328890,0.010139,0.476473,-2.959915,-0.074247,0.028512,-0.045070,0.009009,-0.458648,-0.888572,-0.013694,0.000228,-0.002831,-22.690207,-16.606302,-38.387329,,,,,,,
1504280469.338900,0.010125,0.475835,-2.960363,-0.050019,-0.014307,-0.051356,0.009000,-0.458081,-0.888865,-0.010205,0.001614,-0.001775,-22.465094,-16.605448,-38.311798,,,,,,,
1504280469.348910,0.009783,0.475514,-2.960868,-0.016173,-0.051882,-0.052297,0.008698,-0.457796,-0.889015,-0.007538,0.003770,0.001762,-22.465094,-16.605448,-38.311798,,,,,,,
1504280469.358920,0.009271,0.475504,-2.961317,0.018922,-0.060706,-0.043681,0.008242,-0.457787,-0.889024,-0.006747,0.006493,0.002107,-22.690588,-16.456308,-38.388458,,,,,,,
1504280469.368929,0.008749,0.475752,-2.961619,0.044608,-0.043880,-0.032990,0.007778,-0.458007,-0.888914,-0.009075,0.009613,0.004210,-22.690588,-16.456308,-38.388458,,,,,,,
1504280469.378939,0.008313,0.476177,-2.961695,0.055415,-0.015220,-0.014875,0.007388,-0.458385,-0.888723,-0.013797,0.010219,0.007406,-22.465124,-16.455896,-38.087921,,,,,,,
1504280469.388949,0.008012,0.476551,-2.961597,0.048043,0.005072,-0.002112,0.007119,-0.458717,-0.888554,-0.014565,0.010872,0.005344,-22.465124,-16.455896,-38.087921,,,,,,,
1504280469.398959,0.007751,0.476738,-2.961415,0.031015,0.012665,0.001049,0.006886,-0.458883,-0.888470,-0.016942,0.011007,0.002194,-22.690130,-16.681162,-38.461761,,,,,,,
1504280469.408968,0.007590,0.476717,-2.961322,0.008624,0.010722,-0.005389,0.006744,-0.458865,-0.888480,-0.013534,0.008151,-0.000512,-22.690130,-16.681162,-38.461761,,,,,,,
1504280469.418978,0.007580,0.476580,-2.961415,-0.016997,0.002419,-0.016092,0.006735,-0.458743,-0.888544,-0.005713,0.002765,0.001077,-22.539572,-16.681238,-38.086395,,,,,,,
1504280469.428988,0.007734,0.476265,-2.961733,-0.042493,0.004778,-0.034286,0.006873,-0.458463,-0.888687,-0.001822,-0.001055,0.003937,-22.539572,-16.681238,-38.086395,,,,,,,
1504280469.438998,0.008002,0.475761,-2.962177,-0.059482,0.010254,-0.041797,0.007113,-0.458015,-0.888916,-0.000567,-0.003380,0.001450,-22.540091,-16.605783,-38.311981,,,,,,,
1504280469.449007,0.008332,0.475180,-2.962629,-0.063712,0.015615,-0.040747,0.007409,-0.457499,-0.889179,-0.001610,-0.003332,0.000843,-22.540091,-16.605783,-38.311981,,,,,,,
1504280469.459017,0.008569,0.474579,-2.962984,-0.057365,0.013423,-0.033260,0.007622,-0.456964,-0.889452,-0.004677,-0.002081,-0.001340,-22.315207,-16.604624,-38.386383,,,,,,,
1504280469.469027,0.008655,0.474108,-2.963158,-0.036125,0.011099,-0.017207,0.007700,-0.456545,-0.889667,-0.006037,-0.000089,-0.004758,-22.315207,-16.604624,-38.386383,,,,,,,
1504280469.479037,0.008615,0.473877,-2.963090,-0.004210,0.012944,0.004194,0.007665,-0.456339,-0.889773,-0.008306,0.003855,-0.005125,-22.539907,-16.456537,-37.938110,,,,,,,
1504280469.489047,0.008445,0.473894,-2.962823,0.022371,0.011641,0.020255,0.007514,-0.456354,-0.889766,-0.009101,0.007304,-0.002949,-22.539907,-16.456537,-37.938110,,,,,,,
1504280469.499056,0.008131,0.474099,-2.962424,0.043592,0.001867,0.027782,0.007234,-0.456537,-0.889675,-0.010423,0.010233,-0.001103,-22.540136,-16.456232,-38.088104,,,,,,,
1504280469.509066,0.007800,0.474341,-2.962108,0.047783,-0.012014,0.020344,0.006939,-0.456753,-0.889567,-0.006695,0.012127,-0.002355,-22.540136,-16.456232,-38.088104,,,,,,,
1504280469.519076,0.007443,0.474586,-2.962006,0.044472,-0.035412,0.004369,0.006620,-0.456970,-0.889457,-0.001264,0.010681,-0.003487,-22.389410,-16.830256,-38.234894,,,,,,,
1504280469.529086,0.007143,0.474749,-2.962152,0.029548,-0.044859,-0.013786,0.006353,-0.457115,-0.889385,0.004038,0.007439,-0.005299,-22.389410,-16.830256,-38.234894,,,,,,,
1504280469.539095,0.006910,0.474860,-2.962474,0.019988,-0.047961,-0.027673,0.006145,-0.457214,-0.889335,0.005680,0.003494,-0.006569,-22.240026,-16.679285,-38.385651,,,,,,,
1504280469.549105,0.006663,0.475049,-2.962822,0.019978,-0.047963,-0.025539,0.005926,-0.457382,-0.889250,0.004511,-0.000671,-0.002077,-22.240026,-16.679285,-38.385651,,,,,,,
1504280469.559115,0.006309,0.475269,-2.963048,0.021019,-0.045849,-0.017001,0.005610,-0.457577,-0.889152,0.000677,-0.000064,0.001838,-22.389715,-16.755106,-38.310486,,,,,,,
1504280469.569125,0.005885,0.475525,-2.963088,0.029548,-0.037410,-0.002058,0.005232,-0.457805,-0.889037,-0.001860,0.002757,0.003295,-22.389715,-16.755106,-38.310486,,,,,,,
1504280469.579134,0.005486,0.475798,-2.963010,0.027475,-0.025679,0.004323,0.004876,-0.458048,-0.888914,-0.004266,0.003687,0.005705,-22.690023,-16.457056,-38.013458,,,,,,,
1504280469.589144,0.005227,0.475959,-2.962896,0.020141,-0.007507,0.006414,0.004646,-0.458191,-0.888842,-0.005637,0.006577,0.005663,-22.690023,-16.457056,-38.013458,,,,,,,
1504280469.599123,0.005145,0.475980,-2.962745,0.009572,0.008559,0.011705,0.004573,-0.458210,-0.888832,-0.003383,0.007496,0.002556,-22.389944,-16.530558,-38.087158,,,,,,,
1504280469.609133,0.005157,0.475877,-2.962553,-0.007455,0.016154,0.014865,0.004584,-0.458118,-0.888880,-0.003882,0.005634,0.002588,-22.389944,-16.530558,-38.087158,,,,,,,
1504280469.619111,0.005177,0.475595,-2.962315,-0.026708,0.014175,0.021239,0.004602,-0.457867,-0.889009,-0.001795,0.003918,0.003144,-22.464941,-16.530893,-38.087341,,,,,,,
1504280469.629121,0.005169,0.475228,-2.962078,-0.032117,0.005694,0.022312,0.004596,-0.457541,-0.889177,0.001065,0.002478,-0.001220,-22.464941,-16.530893,-38.087341,,,,,,,
1504280469.639131,0.005092,0.474932,-2.961900,-0.025755,-0.003941,0.014869,0.004528,-0.457278,-0.889312,0.001102,0.000964,0.001037,-22.463888,-16.906046,-38.009521,,,,,,,
1504280469.649140,0.004985,0.474774,-2.961873,-0.011927,-0.017892,0.001041,0.004433,-0.457137,-0.889385,0.003013,0.002548,0.005138,-22.463888,-16.906046,-38.009521,,,,,,,
1504280469.659150,0.004835,0.474682,-2.961982,-0.001269,-0.026492,-0.010667,0.004300,-0.457055,-0.889428,0.002841,0.006418,0.006463,-22.614294,-16.831415,-38.160431,,,,,,,
1504280469.669160,0.004664,0.474647,-2.962140,0.006239,-0.023353,-0.013862,0.004148,-0.457024,-0.889445,0.001543,0.007622,0.003992,-22.614294,-16.831415,-38.160431,,,,,,,
1504280469.679170,0.004529,0.474625,-2.962219,0.006365,-0.004180,-0.008558,0.004028,-0.457005,-0.889455,-0.004379,0.006779,0.003041,-22.315023,-16.455378,-38.012512,,,,,,,
1504280469.689179,0.004555,0.474548,-2.962165,0.003340,0.024604,0.002061,0.004051,-0.456937,-0.889490,-0.008049,0.006680,-0.000280,-22.315023,-16.455378,-38.012512,,,,,,,
1504280469.699189,0.004650,0.474424,-2.961938,-0.001865,0.047012,0.011621,0.004136,-0.456826,-0.889546,-0.013993,0.005822,-0.003383,-22.614935,-16.531565,-38.087708,,,,,,,
1504280469.709199,0.004814,0.474327,-2.961625,0.001344,0.052305,0.018023,0.004283,-0.456740,-0.889590,-0.013636,0.003996,-0.004483,-22.614935,-16.531565,-38.087708,,,,,,,
1504280469.719209,0.005066,0.474274,-2.961375,0.002397,0.048037,0.013764,0.004507,-0.456692,-0.889613,-0.008871,0.002347,-0.004323,-22.390661,-16.380106,-38.313293,,,,,,,
1504280469.729218,0.005206,0.474253,-2.961222,0.002197,0.020336,0.009543,0.004631,-0.456674,-0.889622,-0.003868,0.002085,-0.000576,-22.390661,-16.380106,-38.313293,,,,,,,
1504280469.739228,0.005267,0.474282,-2.961183,0.006311,-0.002069,0.004252,0.004685,-0.456700,-0.889609,0.002883,0.001484,-0.000177,-22.315466,-16.454767,-38.312531,,,,,,,
1504280469.749238,0.005202,0.474354,-2.961203,0.007261,-0.018057,0.002147,0.004628,-0.456764,-0.889576,0.004878,0.000740,0.001942,-22.315466,-16.454767,-38.312531,,,,,,,
1504280469.759248,0.005040,0.474422,-2.961188,0.003974,-0.025494,0.007491,0.004483,-0.456825,-0.889545,0.005817,0.000877,0.003071,-22.315664,-16.379770,-38.313110,,,,,,,
1504280469.769257,0.004816,0.474376,-2.961083,-0.008884,-0.026462,0.017076,0.004284,-0.456784,-0.889567,0.005192,0.001980,0.004603,-22.315664,-16.379770,-38.313110,,,,,,,
1504280469.779267,0.004525,0.474171,-2.960825,-0.023809,-0.018890,0.026644,0.004025,-0.456601,-0.889663,0.002322,0.001294,0.002913,-22.690695,-16.456156,-38.463470,,,,,,,
1504280469.789277,0.004297,0.473892,-2.960444,-0.024765,0.000290,0.035148,0.003823,-0.456353,-0.889791,-0.000039,0.001076,-0.000636,-22.690695,-16.456156,-38.463470,,,,,,,
1504280469.799287,0.004164,0.473617,-2.959979,-0.015063,0.016188,0.040474,0.003705,-0.456108,-0.889917,-0.002866,0.005546,-0.000220,-22.315130,-16.455225,-38.087524,,,,,,,
1504280469.809297,0.004005,0.473445,-2.959449,0.001949,0.011781,0.044781,0.003565,-0.455955,-0.889996,-0.003519,0.009559,0.001659,-22.315130,-16.455225,-38.087524,,,,,,,
1504280469.819306,0.003670,0.473414,-2.958946,0.018828,-0.013929,0.041654,0.003267,-0.455928,-0.890011,-0.002382,0.011607,0.000500,-22.540655,-16.380777,-38.313660,,,,,,,
1504280469.829316,0.003121,0.473542,-2.958519,0.031421,-0.043863,0.035325,0.002778,-0.456041,-0.889954,0.000381,0.011217,0.001466,-22.540655,-16.380777,-38.313660,,,,,,,
1504280469.839326,0.002330,0.473718,-2.958265,0.030204,-0.073670,0.017230,0.002073,-0.456198,-0.889876,0.000536,0.009391,0.001555,-22.465124,-16.455896,-38.087921,,,,,,,
1504280469.849336,0.000941,0.474313,-2.958204,0.089418,-0.152992,-0.002808,0.000837,-0.456727,-0.889606,-0.000669,0.006425,0.001545,-22.465124,-16.455896,-38.087921,,,,,,,
1504280469.859345,-0.001158,0.475186,-2.958594,0.048358,-0.245316,-0.046480,-0.001029,-0.457504,-0.889207,0.000419,0.001114,0.030732,-22.464834,-16.531046,-38.012329,,,,,,,
1504280469.869325,-0.003412,0.476170,-2.959353,0.013068,-0.267385,-0.063583,-0.003033,-0.458379,-0.888752,0.008892,-0.011668,0.070682,-22.689413,-16.607355,-37.862335,,,,,,,
1504280469.879334,-0.005377,0.476226,-2.959952,-0.000361,-0.202290,-0.047710,-0.004779,-0.458429,-0.888718,0.001361,0.006128,0.013749,-22.689413,-16.607355,-37.862335,,,,,,,
1504280469.889344,-0.006780,0.476345,-2.960093,-0.027478,-0.103005,-0.012708,-0.006025,-0.458534,-0.888656,-0.009997,0.001412,0.040939,-22.689413,-16.607355,-37.862335,,,,,,,
1504280469.899354,-0.007953,0.475699,-2.959486,-0.077856,0.022040,0.020079,-0.007070,-0.457960,-0.888945,-0.028544,0.007215,0.004774,-22.689901,-16.457209,-37.938477,,,,,,,
1504280469.909364,-0.007035,0.474560,-2.959080,-0.123996,0.135353,0.040079,-0.006258,-0.456947,-0.889472,-0.029356,0.006203,0.005301,-22.689901,-16.457209,-37.938477,,,,,,,
1504280469.919373,-0.005449,0.472995,-2.958623,-0.165174,0.190037,0.040979,-0.004851,-0.455554,-0.890195,-0.046129,0.001239,-0.014407,-22.765539,-16.157694,-37.865906,,,,,,,
1504280469.929383,-0.003597,0.471128,-2.958323,-0.190620,0.198790,0.022774,-0.003205,-0.453892,-0.891051,-0.043701,0.002720,-0.012590,-22.765539,-16.157694,-37.865906,,,,,,,
1504280469.939393,-0.001734,0.469343,-2.958234,-0.170361,0.185855,0.004686,-0.001546,-0.452300,-0.891864,-0.041514,0.003921,-0.020031,-22.540472,-16.231531,-37.939789,,,,,,,
1504280469.949403,-0.000764,0.467740,-2.958055,-0.117240,0.144940,-0.016495,-0.000682,-0.450870,-0.892589,-0.034382,0.006244,-0.018177,-22.540472,-16.231531,-37.939789,,,,,,,
1504280469.959413,0.000272,0.467049,-2.958304,-0.051628,0.073013,-0.023726,0.000243,-0.450253,-0.892901,-0.029708,0.007962,-0.000562,-22.691183,-16.081751,-38.166260,,,,,,,
1504280469.969422,0.000493,0.467103,-2.958592,0.025591,-0.011804,-0.025577,0.000440,-0.450302,-0.892876,-0.022489,0.010010,0.006692,-22.691183,-16.081751,-38.166260,,,,,,,
1504280469.979432,-0.000018,0.467841,-2.958936,0.086932,-0.084761,-0.033882,-0.000016,-0.450960,-0.892544,-0.016265,0.006747,0.014813,-22.616262,-16.006571,-38.091644,,,,,,,
1504280469.989442,-0.001438,0.469133,-2.959292,0.112097,-0.148893,-0.047600,-0.001283,-0.452113,-0.891960,-0.012588,0.003642,0.029380,-22.616262,-16.006571,-38.091644,,,,,,,
1504280469.999452,-0.002913,0.470249,-2.959937,0.108679,-0.184017,-0.060353,-0.002597,-0.453108,-0.891452,-0.008908,0.002913,0.032855,-22.616186,-16.081415,-38.166077,,,,,,,
1504280470.009461,-0.004497,0.471147,-2.960749,0.080938,-0.195491,-0.078527,-0.004007,-0.453909,-0.891039,-0.005621,0.000341,0.032488,-22.616186,-16.081415,-38.166077,,,,,,,
1504280470.019471,-0.005878,0.471579,-2.961785,0.028871,-0.180125,-0.096790,-0.005236,-0.454293,-0.890837,-0.007749,-0.002677,0.036894,-22.541418,-16.080774,-38.315918,,,,,,,
1504280470.029481,-0.007073,0.471792,-2.962861,-0.037026,-0.151874,-0.101224,-0.006300,-0.454483,-0.890733,-0.003038,-0.005722,0.032014,-22.541418,-16.080774,-38.315918,,,,,,,
1504280470.039491,-0.007749,0.470935,-2.963947,-0.100691,-0.103405,-0.093948,-0.006905,-0.453719,-0.891118,-0.001914,-0.009476,0.029164,-22.915838,-16.307474,-38.315155,,,,,,,
1504280470.049500,-0.007902,0.469536,-2.964908,-0.151491,-0.044390,-0.082398,-0.007047,-0.452473,-0.891750,-0.007571,-0.009685,0.025036,-22.915838,-16.307474,-38.315155,,,,,,,
1504280470.059510,-0.007556,0.467836,-2.965723,-0.170348,0.009028,-0.066514,-0.006744,-0.450956,-0.892521,-0.014328,-0.007387,0.025455,-22.765692,-16.232248,-38.090332,,,,,,,
1504280470.069520,-0.007365,0.466440,-2.966161,-0.162726,0.037716,-0.050539,-0.006578,-0.449710,-0.893151,-0.017561,-0.002179,0.026436,-22.765692,-16.232248,-38.090332,,,,,,,
1504280470.079530,-0.006803,0.464996,-2.966648,-0.136154,0.031093,-0.040875,-0.006080,-0.448419,-0.893803,-0.019005,0.005990,0.029682,-22.916555,-15.932764,-38.167938,,,,,,,
1504280470.089539,-0.006830,0.463866,-2.966970,-0.104364,0.003123,-0.041836,-0.006108,-0.447409,-0.894309,-0.013942,0.014197,0.030554,-22.916555,-15.932764,-38.167938,,,,,,,
1504280470.099549,-0.006845,0.463052,-2.967455,-0.074760,-0.031219,-0.042792,-0.006124,-0.446681,-0.894672,-0.007517,0.016993,0.024052,-22.690161,-16.307352,-37.864594,,,,,,,
1504280470.109559,-0.007145,0.462402,-2.967974,-0.064291,-0.059006,-0.046994,-0.006395,-0.446099,-0.894961,-0.000258,0.014977,0.017947,-22.690161,-16.307352,-37.864594,,,,,,,
1504280470.119569,-0.007455,0.461680,-2.968598,-0.062232,-0.070739,-0.051240,-0.006675,-0.445453,-0.895280,0.005820,0.009693,0.010347,-22.841818,-16.006830,-38.467224,,,,,,,
1504280470.129579,-0.007685,0.460855,-2.969303,-0.069694,-0.071737,-0.054454,-0.006883,-0.444714,-0.895646,0.009569,0.007550,0.000627,-22.841818,-16.006830,-38.467224,,,,,,,
1504280470.139558,-0.007957,0.459923,-2.970006,-0.079240,-0.066325,-0.057683,-0.007131,-0.443879,-0.896058,0.005361,0.008225,0.000902,-22.916861,-15.857615,-38.243500,,,,,,,
1504280470.149568,-0.008078,0.458866,-2.970702,-0.094038,-0.048088,-0.056673,-0.007243,-0.442931,-0.896526,0.005534,0.006606,-0.000874,-22.916861,-15.857615,-38.243500,,,,,,,
1504280470.159577,-0.008087,0.457661,-2.971398,-0.109863,-0.028770,-0.062072,-0.007254,-0.441851,-0.897059,0.001700,0.006029,-0.001256,-22.691259,-16.006907,-38.091827,,,,,,,
1504280470.169587,-0.007835,0.456376,-2.972098,-0.116008,0.004313,-0.061073,-0.007033,-0.440698,-0.897628,0.000105,0.005090,-0.001511,-22.691259,-16.006907,-38.091827,,,,,,,
1504280470.179597,-0.007089,0.455143,-2.972831,-0.111415,0.045834,-0.060071,-0.006367,-0.439591,-0.898176,0.003544,0.001633,-0.006426,-22.841818,-15.782572,-38.093903,,,,,,,
1504280470.189607,-0.006203,0.453899,-2.973431,-0.116561,0.073575,-0.053724,-0.005574,-0.438473,-0.898727,-0.003901,0.002240,-0.003510,-22.841818,-15.782572,-38.093903,,,,,,,
1504280470.199616,-0.005302,0.452568,-2.973873,-0.130489,0.075805,-0.038808,-0.004768,-0.437277,-0.899314,-0.003685,0.002325,-0.000191,-22.766256,-16.007242,-38.092010,,,,,,,
1504280470.209626,-0.004520,0.451003,-2.974223,-0.149823,0.063171,-0.033482,-0.004068,-0.435868,-0.900001,-0.003332,0.000916,-0.006737,-22.766256,-16.007242,-38.092010,,,,,,,
1504280470.219636,-0.003967,0.449302,-2.974687,-0.151065,0.032294,-0.048373,-0.003573,-0.434337,-0.900744,-0.003522,0.002635,-0.012510,-22.542395,-15.556223,-38.094849,,,,,,,
1504280470.229646,-0.003535,0.447661,-2.975509,-0.138457,-0.010402,-0.078163,-0.003187,-0.432858,-0.901456,0.003431,0.004147,-0.012469,-22.542395,-15.556223,-38.094849,,,,,,,
1504280470.239655,-0.003336,0.446291,-2.976660,-0.103458,-0.052220,-0.103647,-0.003009,-0.431622,-0.902049,0.006503,0.005307,-0.013509,-22.466970,-15.855448,-38.317413,,,,,,,
1504280470.249665,-0.003359,0.445317,-2.977974,-0.059869,-0.077076,-0.113134,-0.003031,-0.430744,-0.902469,0.007975,0.008777,-0.012036,-22.466970,-15.855448,-38.317413,,,,,,,
1504280470.259675,-0.003470,0.444807,-2.979217,-0.018234,-0.068900,-0.105605,-0.003133,-0.430284,-0.902688,0.004659,0.009691,-0.008002,-22.617056,-15.781275,-38.243347,,,,,,,
1504280470.269685,-0.003445,0.444614,-2.980332,-0.005277,-0.043442,-0.096021,-0.003110,-0.430109,-0.902772,0.002866,0.006067,-0.002883,-22.617056,-15.781275,-38.243347,,,,,,,
1504280470.279694,-0.003346,0.444382,-2.981277,-0.024370,-0.021985,-0.084350,-0.003021,-0.429900,-0.902871,-0.003006,0.002181,-0.001502,-22.692160,-15.781458,-38.318542,,,,,,,
1504280470.289704,-0.003210,0.443838,-2.982112,-0.064914,-0.017397,-0.076956,-0.002899,-0.429409,-0.903106,-0.002930,-0.002964,-0.005418,-22.692160,-15.781458,-38.318542,,,,,,,
1504280470.299714,-0.003200,0.442917,-2.982852,-0.104610,-0.036265,-0.063116,-0.002891,-0.428577,-0.903501,0.000129,-0.007550,-0.010318,-22.842459,-15.706980,-38.394440,,,,,,,
1504280470.309724,-0.003413,0.441692,-2.983434,-0.117612,-0.051093,-0.047101,-0.003085,-0.427470,-0.904024,0.001178,-0.006109,-0.017057,-22.842459,-15.706980,-38.394440,,,,,,,
1504280470.319734,-0.003842,0.440409,-2.983831,-0.108083,-0.053314,-0.036406,-0.003475,-0.426309,-0.904571,-0.003650,-0.001105,-0.021012,-22.692434,-15.631601,-38.244659,,,,,,,
1504280470.329743,-0.004331,0.439304,-2.984143,-0.088892,-0.051348,-0.031039,-0.003920,-0.425310,-0.905039,-0.005815,0.000826,-0.016286,-22.692434,-15.631601,-38.244659,,,,,,,
1504280470.339753,-0.004692,0.438406,-2.984493,-0.064240,-0.040889,-0.037418,-0.004248,-0.424497,-0.905420,-0.004862,0.002561,-0.015647,-22.618856,-15.106119,-38.323425,,,,,,,
1504280470.349763,-0.004822,0.437690,-2.984948,-0.043740,-0.018670,-0.048095,-0.004367,-0.423849,-0.905722,-0.005048,0.003164,-0.020639,-22.618856,-15.106119,-38.323425,,,,,,,
1504280470.359773,-0.004645,0.437206,-2.985510,-0.031869,-0.002781,-0.050237,-0.004208,-0.423410,-0.905928,-0.000370,-0.000403,-0.019288,-22.693670,-15.181452,-38.323029,,,,,,,
1504280470.369782,-0.004281,0.436799,-2.986075,-0.029669,0.008918,-0.044917,-0.003879,-0.423041,-0.906102,0.003361,-0.003427,-0.020290,-22.693670,-15.181452,-38.323029,,,,,,,
1504280470.379792,-0.004008,0.436425,-2.986461,-0.031932,0.003592,-0.027833,-0.003632,-0.422702,-0.906261,0.002579,-0.007306,-0.023579,-22.693289,-15.331461,-38.321899,,,,,,,
1504280470.389802,-0.003947,0.436023,-2.986659,-0.041744,-0.011264,-0.009679,-0.003577,-0.422338,-0.906432,0.003471,-0.010936,-0.024843,-22.693289,-15.331461,-38.321899,,,,,,,
1504280470.399812,-0.004173,0.435558,-2.986695,-0.046244,-0.033615,0.001027,-0.003783,-0.421916,-0.906627,0.002700,-0.013081,-0.028706,-22.468817,-15.254999,-38.546906,,,,,,,
1504280470.409791,-0.004664,0.435101,-2.986686,-0.037916,-0.058194,0.003219,-0.004230,-0.421502,-0.906818,0.002567,-0.012702,-0.032422,-22.468817,-15.254999,-38.546906,,,,,,,
1504280470.419801,-0.005340,0.434809,-2.986629,-0.010334,-0.074410,0.008632,-0.004843,-0.421237,-0.906938,0.003577,-0.008344,-0.031112,-22.693213,-15.406305,-38.396332,,,,,,,
1504280470.429810,-0.006116,0.434859,-2.986544,0.026912,-0.084309,0.011916,-0.005547,-0.421283,-0.906913,0.005653,-0.004041,-0.025277,-22.693213,-15.406305,-38.396332,,,,,,,
1504280470.439820,-0.006896,0.435281,-2.986483,0.063239,-0.080341,0.007702,-0.006253,-0.421665,-0.906730,0.004650,0.000355,-0.015435,-22.918447,-15.407022,-38.546875,,,,,,,
1504280470.449830,-0.007503,0.436005,-2.986483,0.095416,-0.063547,0.000257,-0.006801,-0.422322,-0.906421,0.004512,0.005055,-0.012143,-22.918447,-15.407022,-38.546875,,,,,,,
1504280470.459840,-0.007947,0.436949,-2.986577,0.112634,-0.050891,-0.009343,-0.007200,-0.423177,-0.906018,0.003889,0.007390,-0.007067,-22.842840,-15.556971,-38.395569,,,,,,,
1504280470.469850,-0.008270,0.437932,-2.986790,0.103132,-0.045472,-0.021110,-0.007489,-0.424067,-0.905600,0.003217,0.006007,-0.000284,-22.842840,-15.556971,-38.395569,,,,,,,
1504280470.479859,-0.008438,0.438753,-2.987198,0.079772,-0.042064,-0.038236,-0.007639,-0.424811,-0.905250,0.005045,0.002265,-0.002160,-23.142721,-15.558481,-38.321320,,,,,,,
1504280470.489869,-0.008452,0.439360,-2.987790,0.048976,-0.033268,-0.053249,-0.007649,-0.425360,-0.904992,0.005925,-0.003762,-0.005104,-23.142721,-15.558481,-38.321320,,,,,,,
1504280470.499879,-0.008216,0.439748,-2.988567,0.022433,-0.024511,-0.065052,-0.007434,-0.425711,-0.904829,0.009875,-0.007547,-0.003161,-23.516897,-15.935007,-38.394440,,,,,,,
1504280470.509889,-0.007794,0.439960,-2.989461,0.004426,-0.013695,-0.073643,-0.007051,-0.425904,-0.904741,0.012789,-0.007919,-0.001478,-23.516897,-15.935007,-38.394440,,,,,,,
1504280470.519898,-0.007194,0.440067,-2.990494,0.003496,-0.004081,-0.085404,-0.006509,-0.426000,-0.904700,0.013634,-0.003336,0.002035,-22.691931,-15.781748,-38.168518,,,,,,,
1504280470.529908,-0.006551,0.440150,-2.991607,0.017410,-0.003120,-0.092855,-0.005926,-0.426075,-0.904669,0.011908,0.004948,0.002248,-22.691931,-15.781748,-38.168518,,,,,,,
1504280470.539918,-0.005967,0.440266,-2.992755,0.039789,-0.008625,-0.097077,-0.005398,-0.426180,-0.904622,0.009365,0.014299,0.000539,-22.916601,-16.007471,-38.317413,,,,,,,
1504280470.549928,-0.005606,0.440587,-2.993828,0.066300,-0.023768,-0.089533,-0.005071,-0.426470,-0.904487,0.005757,0.017901,0.000541,-22.916601,-16.007471,-38.317413,,,,,,,
1504280470.559937,-0.005430,0.441091,-2.994776,0.078951,-0.035604,-0.078816,-0.004910,-0.426926,-0.904273,0.005826,0.018418,0.001624,-23.066854,-15.858286,-38.243896,,,,,,,
1504280470.569947,-0.005367,0.441535,-2.995682,0.061911,-0.033328,-0.082052,-0.004852,-0.427328,-0.904084,0.001617,0.016912,0.002671,-23.066854,-15.858286,-38.243896,,,,,,,
1504280470.579957,-0.005085,0.441702,-2.996629,0.029033,-0.009611,-0.084286,-0.004597,-0.427479,-0.904014,0.002445,0.013325,-0.000314,-22.615927,-16.007013,-37.866638,,,,,,,
1504280470.589967,-0.004467,0.441543,-2.997567,-0.007036,0.020517,-0.077997,-0.004039,-0.427335,-0.904084,0.004894,0.009306,-0.003539,-22.615927,-16.007013,-37.866638,,,,,,,
1504280470.599976,-0.003668,0.441145,-2.998347,-0.034643,0.047369,-0.062082,-0.003317,-0.426975,-0.904257,0.002508,0.006580,-0.000940,-22.691153,-16.007059,-38.016815,,,,,,,
1504280470.609986,-0.002822,0.440676,-2.998890,-0.041050,0.060187,-0.040767,-0.002552,-0.426551,-0.904460,0.001682,0.005653,0.003749,-22.691153,-16.007059,-38.016815,,,,,,,
1504280470.619982,-0.002084,0.440215,-2.999203,-0.037992,0.053750,-0.022605,-0.001885,-0.426134,-0.904658,0.001855,0.007586,0.007746,-22.992239,-15.707956,-38.244812,,,,,,,
1504280470.629992,-0.001506,0.439761,-2.999386,-0.044602,0.035678,-0.009776,-0.001363,-0.425723,-0.904852,0.004766,0.007938,0.014655,-22.992239,-15.707956,-38.244812,,,,,,,
1504280470.640002,-0.001103,0.439283,-2.999559,-0.052276,0.011232,-0.007613,-0.000999,-0.425291,-0.905056,0.010245,0.005491,0.015881,-22.466146,-16.006037,-38.016266,,,,,,,
1504280470.650011,-0.000807,0.438707,-2.999748,-0.054464,0.003794,-0.008672,-0.000730,-0.424769,-0.905301,0.010297,0.003932,0.008390,-22.466146,-16.006037,-38.016266,,,,,,,
1504280470.660021,-0.000498,0.438189,-2.999931,-0.046954,0.009063,-0.008669,-0.000451,-0.424300,-0.905521,0.008935,0.003051,0.005573,-22.692358,-15.706461,-38.319092,,,,,,,
1504280470.670031,-0.000391,0.437831,-2.999976,-0.023645,-0.003928,0.003136,-0.000354,-0.423976,-0.905673,0.004520,0.006939,0.008639,-22.692358,-15.706461,-38.319092,,,,,,,
1504280470.680010,-0.000612,0.437675,-2.999794,0.001687,-0.025469,0.023498,-0.000555,-0.423834,-0.905740,0.003118,0.011099,0.009270,-22.691717,-15.782053,-38.018524,,,,,,,
1504280470.690020,-0.001249,0.437760,-2.999436,0.025917,-0.056583,0.035336,-0.001131,-0.423912,-0.905703,0.000964,0.014091,0.012255,-22.691717,-15.782053,-38.018524,,,,,,,
1504280470.700030,-0.002109,0.438013,-2.999092,0.035374,-0.077967,0.030053,-0.001910,-0.424140,-0.905594,0.002291,0.012550,0.014847,-22.391409,-15.855860,-37.942230,,,,,,,
1504280470.710039,-0.002934,0.438280,-2.998920,0.031213,-0.075782,0.011896,-0.002656,-0.424383,-0.905479,0.003191,0.010274,0.013954,-22.391409,-15.855860,-37.942230,,,,,,,
1504280470.720049,-0.003451,0.438488,-2.998991,0.013343,-0.054302,-0.007386,-0.003125,-0.424571,-0.905389,0.004330,0.006129,0.014749,-22.466482,-15.781336,-37.867981,,,,,,,
1504280470.730059,-0.003627,0.438489,-2.999184,-0.019461,-0.025252,-0.014966,-0.003284,-0.424572,-0.905388,0.004337,0.001095,0.015770,-22.466482,-15.781336,-37.867981,,,,,,,
1504280470.740069,-0.003606,0.438154,-2.999337,-0.058749,0.000642,-0.010811,-0.003265,-0.424269,-0.905530,0.001663,-0.003359,0.014142,-22.692160,-15.557199,-37.945221,,,,,,,
1504280470.750078,-0.003383,0.437400,-2.999431,-0.103445,0.018055,-0.005582,-0.003064,-0.423586,-0.905851,0.002072,-0.007612,0.009244,-22.692160,-15.557199,-37.945221,,,,,,,
1504280470.760088,-0.003053,0.436246,-2.999482,-0.133313,0.022558,0.000762,-0.002767,-0.422540,-0.906340,0.005026,-0.006385,0.004897,-22.692053,-15.781610,-38.243530,,,,,,,
1504280470.770098,-0.002705,0.434879,-2.999534,-0.133344,0.019362,0.001835,-0.002454,-0.421300,-0.906918,0.008191,-0.001292,0.000393,-22.692053,-15.781610,-38.243530,,,,,,,
1504280470.780108,-0.002410,0.433731,-2.999584,-0.097078,0.016936,-0.000234,-0.002187,-0.420260,-0.907401,0.006063,0.002398,-0.001672,-22.692541,-15.407206,-37.946350,,,,,,,
1504280470.790118,-0.002183,0.433040,-2.999609,-0.044854,0.012241,0.003067,-0.001981,-0.419632,-0.907692,0.004743,0.007187,0.002113,-22.692541,-15.407206,-37.946350,,,,,,,
1504280470.800127,-0.002131,0.432734,-2.999533,-0.003363,0.002301,0.010628,-0.001934,-0.419354,-0.907821,0.002117,0.015256,0.008773,-22.693670,-15.181452,-38.323029,,,,,,,
1504280470.810137,-0.002272,0.432714,-2.999301,0.015656,-0.010659,0.026695,-0.002062,-0.419336,-0.907829,0.002078,0.013666,0.009818,-22.693670,-15.181452,-38.323029,,,,,,,
1504280470.820147,-0.002562,0.432639,-2.998953,-0.001502,-0.017982,0.032015,-0.002326,-0.419268,-0.907860,0.000906,0.008822,0.004387,-22.767721,-15.332544,-37.947083,,,,,,,
1504280470.830157,-0.002954,0.432325,-2.998575,-0.031392,-0.019867,0.031966,-0.002682,-0.418983,-0.907990,-0.001529,0.004310,-0.000106,-22.767721,-15.332544,-37.947083,,,,,,,
1504280470.840166,-0.003310,0.431684,-2.998264,-0.063350,-0.017466,0.025503,-0.003006,-0.418401,-0.908258,-0.002258,0.000386,-0.009787,-22.916708,-15.783060,-38.019073,,,,,,,
1504280470.850176,-0.003631,0.430815,-2.997963,-0.079268,-0.007744,0.023324,-0.003299,-0.417611,-0.908620,-0.005719,-0.000281,-0.014369,-22.916708,-15.783060,-38.019073,,,,,,,
1504280470.860186,-0.003926,0.429874,-2.997576,-0.074947,0.003932,0.030783,-0.003569,-0.416757,-0.909011,-0.008714,0.002740,-0.015610,-22.843512,-15.107569,-38.098969,,,,,,,
1504280470.870196,-0.004258,0.429007,-2.996956,-0.055746,0.016538,0.051076,-0.003873,-0.415968,-0.909371,-0.013736,0.007750,-0.015510,-22.843512,-15.107569,-38.098969,,,,,,,
1504280470.880205,-0.004683,0.428351,-2.996069,-0.026976,0.025865,0.072459,-0.004260,-0.415371,-0.909642,-0.018476,0.012768,-0.014339,-22.918325,-15.182917,-38.098572,,,,,,,
1504280470.890215,-0.005161,0.427936,-2.995000,0.002909,0.035192,0.084237,-0.004695,-0.414994,-0.909812,-0.022740,0.016693,-0.013421,-22.918325,-15.182917,-38.098572,,,,,,,
1504280470.900225,-0.005549,0.427722,-2.993810,0.023294,0.054193,0.090646,-0.005049,-0.414799,-0.909899,-0.025331,0.020146,-0.012495,-22.918142,-15.257914,-38.098022,,,,,,,
1504280470.910235,-0.005781,0.427687,-2.992654,0.029819,0.066927,0.085299,-0.005261,-0.414767,-0.909912,-0.025654,0.015368,-0.012100,-22.918142,-15.257914,-38.098022,,,,,,,
1504280470.920244,-0.005941,0.427673,-2.991621,0.027718,0.063755,0.072495,-0.005406,-0.414755,-0.909917,-0.025814,0.012701,-0.014414,-22.993521,-15.108255,-38.099335,,,,,,,
1504280470.930254,-0.006061,0.427674,-2.990810,0.024480,0.048877,0.055438,-0.005515,-0.414755,-0.909916,-0.020745,0.007437,-0.017406,-22.768850,-15.106791,-38.323792,,,,,,,
1504280470.940264,-0.006263,0.427820,-2.990163,0.029672,0.025397,0.045883,-0.005699,-0.414888,-0.909855,-0.016152,0.000719,-0.017010,-22.768850,-15.106791,-38.323792,,,,,,,
1504280470.950243,-0.006639,0.428162,-2.989636,0.035841,-0.007683,0.039549,-0.006040,-0.415200,-0.909710,-0.009905,-0.004142,-0.009571,-22.843298,-15.332132,-38.322296,,,,,,,
1504280470.960253,-0.007190,0.428643,-2.989200,0.041021,-0.031163,0.033195,-0.006539,-0.415637,-0.909507,-0.006065,-0.007046,-0.004678,-22.843298,-15.332132,-38.322296,,,,,,,
1504280470.970263,-0.007747,0.429228,-2.988829,0.046392,-0.030138,0.027866,-0.007044,-0.416169,-0.909260,-0.005086,-0.008789,-0.002407,-22.843069,-15.332422,-38.172272,,,,,,,
1504280470.980273,-0.008199,0.429865,-2.988479,0.046564,-0.010957,0.024631,-0.007453,-0.416748,-0.908992,-0.009225,-0.009125,0.001689,-22.843069,-15.332422,-38.172272,,,,,,,
1504280470.990282,-0.008442,0.430427,-2.988122,0.032930,0.016860,0.022424,-0.007672,-0.417259,-0.908755,-0.012668,-0.010124,0.003924,-22.843863,-15.107126,-38.323975,,,,,,,
1504280471.000292,-0.008461,0.430767,-2.987762,0.012902,0.045795,0.020205,-0.007688,-0.417568,-0.908613,-0.016741,-0.009647,0.001707,-22.843863,-15.107126,-38.323975,,,,,,,
1504280471.010302,-0.008240,0.430960,-2.987443,0.001335,0.064006,0.015884,-0.007486,-0.417743,-0.908534,-0.017263,-0.011959,-0.002858,-22.993521,-15.108255,-38.099335,,,,,,,
1504280471.020312,-0.007897,0.431099,-2.987179,-0.001807,0.068296,0.011603,-0.007174,-0.417869,-0.908479,-0.015805,-0.012032,-0.003890,-22.993521,-15.108255,-38.099335,,,,,,,
1504280471.030321,-0.007523,0.431228,-2.987041,0.005599,0.054390,0.002034,-0.006834,-0.417987,-0.908427,-0.011568,-0.007855,-0.002324,-22.693853,-15.106455,-38.323608,,,,,,,
1504280471.040331,-0.007258,0.431414,-2.987099,0.015088,0.028754,-0.016049,-0.006593,-0.418156,-0.908351,-0.008559,-0.002742,0.002162,-22.693853,-15.106455,-38.323608,,,,,,,
1504280471.050341,-0.007142,0.431671,-2.987394,0.029917,0.002013,-0.037324,-0.006487,-0.418389,-0.908245,-0.005720,0.001290,0.002681,-22.693747,-15.106607,-38.248596,,,,,,,
1504280471.060351,-0.007156,0.432031,-2.987869,0.048000,-0.014106,-0.052207,-0.006499,-0.418716,-0.908094,-0.006425,0.004791,-0.000414,-22.693747,-15.106607,-38.248596,,,,,,,
1504280471.070360,-0.007231,0.432533,-2.988444,0.058625,-0.022714,-0.057510,-0.006565,-0.419172,-0.907883,-0.006069,0.005827,0.000519,-22.468527,-15.105890,-38.098053,,,,,,,
1504280471.080370,-0.007415,0.433053,-2.988978,0.056449,-0.025898,-0.054305,-0.006730,-0.419644,-0.907664,-0.009093,0.005658,0.002665,-22.468527,-15.105890,-38.098053,,,,,,,
1504280471.090380,-0.007556,0.433459,-2.989452,0.044757,-0.016220,-0.047937,-0.006857,-0.420013,-0.907492,-0.009333,0.006057,0.000571,-22.767721,-15.332544,-37.947083,,,,,,,
1504280471.100390,-0.007539,0.433720,-2.989856,0.027816,0.004158,-0.041597,-0.006841,-0.420249,-0.907383,-0.008937,0.002464,-0.002651,-22.767721,-15.332544,-37.947083,,,,,,,
1504280471.110399,-0.007293,0.433856,-2.990151,0.016237,0.031944,-0.028857,-0.006617,-0.420372,-0.907328,-0.008321,0.001793,-0.004248,-22.692953,-15.331903,-38.096893,,,,,,,
1504280471.120409,-0.006829,0.433903,-2.990280,0.010999,0.055410,-0.010761,-0.006196,-0.420416,-0.907310,-0.005751,0.003454,-0.003029,-22.692953,-15.331903,-38.096893,,,,,,,
1504280471.130419,-0.006427,0.434029,-2.990170,0.023676,0.053151,0.010613,-0.005831,-0.420529,-0.907260,-0.006849,0.005063,0.000980,-22.693182,-15.331598,-38.246887,,,,,,,
1504280471.140429,-0.006235,0.434290,-2.989942,0.039441,0.027439,0.017091,-0.005656,-0.420767,-0.907151,-0.005620,0.007559,0.001557,-22.693182,-15.331598,-38.246887,,,,,,,
1504280471.150439,-0.006353,0.434719,-2.989777,0.054115,-0.009971,0.009711,-0.005762,-0.421156,-0.906970,-0.003806,0.007566,0.004840,-22.617208,-15.631571,-38.094482,,,,,,,
1504280471.160448,-0.006736,0.435282,-2.989785,0.066656,-0.050553,-0.003005,-0.006108,-0.421666,-0.906731,0.002202,0.007344,0.003532,-22.617208,-15.631571,-38.094482,,,,,,,
1504280471.170458,-0.007397,0.435929,-2.989922,0.073885,-0.085767,-0.011470,-0.006705,-0.422253,-0.906453,0.004844,0.005917,0.000280,-22.767721,-15.556787,-38.320404,,,,,,,
1504280471.180468,-0.008261,0.436675,-2.990097,0.073790,-0.099616,-0.014648,-0.007486,-0.422928,-0.906132,0.003274,0.001984,0.003285,-22.767721,-15.556787,-38.320404,,,,,,,
1504280471.190478,-0.009124,0.437428,-2.990287,0.071724,-0.093201,-0.017865,-0.008265,-0.423611,-0.905806,0.002222,-0.000156,0.001967,-22.917120,-15.707773,-38.169617,,,,,,,
1504280471.200487,-0.009868,0.438192,-2.990428,0.071860,-0.072962,-0.012563,-0.008935,-0.424303,-0.905476,-0.000983,-0.001249,0.002354,-22.917120,-15.707773,-38.169617,,,,,,,
1504280471.210497,-0.010439,0.438913,-2.990451,0.069829,-0.052711,-0.000861,-0.009450,-0.424955,-0.905165,-0.000530,0.001036,0.002791,-22.692160,-15.781458,-38.318542,,,,,,,
1504280471.220476,-0.010855,0.439597,-2.990382,0.062500,-0.031346,0.005493,-0.009823,-0.425575,-0.904870,-0.001881,0.000419,0.004601,-22.692160,-15.781458,-38.318542,,,,,,,
1504280471.230486,-0.011186,0.440227,-2.990284,0.055074,-0.024894,0.007604,-0.010119,-0.426145,-0.904598,-0.001218,-0.000842,0.006313,-22.541830,-15.781229,-38.093170,,,,,,,
1504280471.240496,-0.011435,0.440781,-2.990216,0.042346,-0.018391,0.003301,-0.010342,-0.426646,-0.904360,-0.000659,-0.002675,0.006761,-22.541830,-15.781229,-38.093170,,,,,,,
1504280471.250506,-0.011533,0.441176,-2.990291,0.020055,-0.012865,-0.010624,-0.010429,-0.427003,-0.904190,0.000465,-0.004881,0.006698,-23.141714,-15.784082,-38.019623,,,,,,,
1504280471.260515,-0.011554,0.441301,-2.990578,-0.007575,-0.012615,-0.032020,-0.010447,-0.427116,-0.904136,-0.001638,-0.004311,0.009071,-23.141714,-15.784082,-38.019623,,,,,,,
1504280471.270525,-0.011495,0.441210,-2.991012,-0.024625,-0.015663,-0.040584,-0.010394,-0.427034,-0.904176,0.000674,-0.005278,0.006272,-22.767019,-15.707239,-38.094269,,,,,,,
1504280471.280535,-0.011416,0.441055,-2.991506,-0.035315,-0.019834,-0.042730,-0.010323,-0.426893,-0.904243,0.002938,-0.008821,0.003975,-22.767019,-15.707239,-38.094269,,,,,,,
1504280471.290545,-0.011423,0.440863,-2.991987,-0.036444,-0.027285,-0.041652,-0.010330,-0.426720,-0.904325,0.003433,-0.006843,0.008451,-22.991705,-15.783396,-38.019257,,,,,,,
1504280471.300555,-0.011461,0.440700,-2.992452,-0.023670,-0.028459,-0.037358,-0.010366,-0.426572,-0.904394,0.003957,-0.003359,0.008016,-22.991705,-15.783396,-38.019257,,,,,,,
1504280471.310564,-0.011391,0.440702,-2.992839,-0.000130,-0.014808,-0.028803,-0.010303,-0.426575,-0.904394,0.005527,-0.001724,0.003774,-22.541143,-16.006372,-38.016449,,,,,,,
1504280471.320574,-0.011338,0.440766,-2.993118,0.007301,-0.014876,-0.021319,-0.010254,-0.426633,-0.904367,0.004104,0.004132,0.008416,-22.541143,-16.006372,-38.016449,,,,,,,
1504280471.330584,-0.011427,0.440793,-2.993267,0.006132,-0.020206,-0.009570,-0.010334,-0.426656,-0.904355,0.002018,0.007269,0.009518,-22.916708,-15.783060,-38.019073,,,,,,,
1504280471.340594,-0.011679,0.440761,-2.993309,0.005972,-0.034067,0.000061,-0.010563,-0.426628,-0.904366,0.003468,0.007164,0.000999,-22.916708,-15.783060,-38.019073,,,,,,,
1504280471.350603,-0.012109,0.440733,-2.993305,0.005815,-0.052182,0.002227,-0.010952,-0.426602,-0.904373,0.003780,0.004865,-0.002457,-23.217611,-15.558969,-38.246490,,,,,,,
1504280471.360613,-0.012706,0.440700,-2.993297,0.013175,-0.066094,0.001197,-0.011492,-0.426573,-0.904380,0.002840,0.007688,-0.002831,-23.217611,-15.558969,-38.246490,,,,,,,
1504280471.370623,-0.013190,0.440786,-2.993349,0.026070,-0.057668,-0.004133,-0.011929,-0.426651,-0.904338,0.006085,0.006134,-0.005651,-22.917242,-15.707621,-38.244629,,,,,,,
1504280471.380633,-0.013556,0.441050,-2.993456,0.042195,-0.045009,-0.008398,-0.012259,-0.426889,-0.904221,0.004217,0.005990,-0.004333,-22.917242,-15.707621,-38.244629,,,,,,,
1504280471.390642,-0.013882,0.441400,-2.993502,0.054007,-0.031260,-0.001997,-0.012551,-0.427206,-0.904067,0.000558,0.010015,-0.001603,-23.216818,-15.784266,-38.094818,,,,,,,
1504280471.400652,-0.014131,0.441815,-2.993416,0.054043,-0.018486,0.010790,-0.012774,-0.427581,-0.903887,0.000170,0.007308,-0.001432,-23.216818,-15.784266,-38.094818,,,,,,,
1504280471.410662,-0.014358,0.442263,-2.993178,0.048748,-0.006732,0.021434,-0.012976,-0.427986,-0.903692,-0.001855,0.003624,-0.000650,-22.991827,-15.783258,-38.094269,,,,,,,
1504280471.420672,-0.014558,0.442610,-2.992883,0.031733,0.000865,0.022459,-0.013154,-0.428299,-0.903541,-0.004103,0.002167,0.002388,-22.991827,-15.783258,-38.094269,,,,,,,
1504280471.430681,-0.014665,0.442789,-2.992659,0.013628,0.001020,0.016023,-0.013250,-0.428462,-0.903463,-0.002329,0.001353,0.002202,-22.916677,-15.708368,-37.869629,,,,,,,
1504280471.440691,-0.014806,0.442910,-2.992532,0.008215,-0.012781,0.009633,-0.013377,-0.428571,-0.903409,0.000758,-0.000903,0.001172,-22.916677,-15.708368,-37.869629,,,,,,,
1504280471.450701,-0.015035,0.443042,-2.992522,0.008091,-0.033018,0.002197,-0.013583,-0.428690,-0.903349,0.004413,-0.001806,0.002944,-23.142309,-15.633768,-38.170746,,,,,,,
1504280471.460711,-0.015421,0.443193,-2.992591,0.014371,-0.052243,-0.004163,-0.013931,-0.428826,-0.903280,0.004989,-0.000541,0.001485,-23.142309,-15.633768,-38.170746,,,,,,,
1504280471.470721,-0.015883,0.443409,-2.992668,0.027072,-0.063005,-0.000921,-0.014347,-0.429021,-0.903180,0.007923,0.001684,-0.001773,-23.141973,-15.634226,-37.945770,,,,,,,
1504280471.480730,-0.016393,0.443664,-2.992713,0.028164,-0.059816,-0.000925,-0.014806,-0.429252,-0.903063,0.006108,0.002296,-0.000272,-23.141973,-15.634226,-37.945770,,,,,,,
1504280471.490710,-0.016856,0.443867,-2.992736,0.027181,-0.049151,-0.000946,-0.015222,-0.429435,-0.902970,0.003442,0.004951,-0.000458,-23.066336,-15.933741,-38.018311,,,,,,,
1504280471.500719,-0.017148,0.443994,-2.992761,0.020957,-0.026722,-0.000996,-0.015485,-0.429549,-0.902911,0.001782,0.005416,-0.001859,-23.066336,-15.933741,-38.018311,,,,,,,
1504280471.510729,-0.017288,0.444062,-2.992753,0.017903,-0.007517,0.000032,-0.015610,-0.429611,-0.902879,-0.000442,0.006546,-0.003142,-23.065130,-16.234339,-37.716064,,,,,,,
1504280471.520739,-0.017301,0.444133,-2.992702,0.016933,0.007405,0.004274,-0.015622,-0.429675,-0.902848,-0.001544,0.004977,-0.001723,-23.065130,-16.234339,-37.716064,,,,,,,
1504280471.530749,-0.017179,0.444289,-2.992615,0.027664,0.017968,0.008544,-0.015510,-0.429816,-0.902783,-0.000054,0.005317,-0.000507,-23.215918,-16.009714,-37.868134,,,,,,,
1504280471.540758,-0.017006,0.444562,-2.992485,0.035149,0.022166,0.011751,-0.015352,-0.430063,-0.902669,0.000689,0.005380,0.002995,-23.215918,-16.009714,-37.868134,,,,,,,
1504280471.550768,-0.016809,0.444890,-2.992374,0.035106,0.016839,0.011760,-0.015172,-0.430358,-0.902531,0.003911,0.006011,0.007358,-22.990347,-16.233698,-37.865875,,,,,,,
1504280471.560778,-0.016652,0.445164,-2.992283,0.026463,0.004123,0.012834,-0.015028,-0.430606,-0.902415,0.007750,0.005313,0.008967,-22.990347,-16.233698,-37.865875,,,,,,,
1504280471.570788,-0.016501,0.445290,-2.992240,0.009334,-0.003192,0.012817,-0.014891,-0.430720,-0.902363,0.011839,0.004557,0.006565,-23.065847,-16.083887,-37.942200,,,,,,,
1504280471.580797,-0.016348,0.445216,-2.992194,-0.010953,-0.003025,0.015982,-0.014754,-0.430652,-0.902397,0.014006,0.004871,0.007927,-23.065847,-16.083887,-37.942200,,,,,,,
1504280471.590807,-0.016207,0.444982,-2.992061,-0.025951,-0.003975,0.026631,-0.014629,-0.430441,-0.902500,0.015987,0.004279,0.008930,-22.991446,-15.933252,-38.093140,,,,,,,
1504280471.600817,-0.016117,0.444691,-2.991816,-0.030254,-0.001816,0.037292,-0.014549,-0.430179,-0.902627,0.015174,0.003100,0.007790,-22.991446,-15.933252,-38.093140,,,,,,,
1504280471.610827,-0.016147,0.444427,-2.991404,-0.019675,-0.005111,0.050124,-0.014578,-0.429940,-0.902740,0.012411,0.004418,0.007323,-23.291601,-15.784906,-37.945007,,,,,,,
1504280471.620815,-0.016424,0.444303,-2.990758,0.002552,-0.015967,0.068327,-0.014828,-0.429829,-0.902789,0.008069,0.006245,0.004382,-23.291601,-15.784906,-37.945007,,,,,,,
1504280471.630825,-0.017000,0.444429,-2.989927,0.029094,-0.026850,0.076931,-0.015348,-0.429942,-0.902726,0.002378,0.007487,0.004639,-23.066778,-15.708887,-37.945007,,,,,,,
1504280471.640835,-0.017691,0.444803,-2.989085,0.048293,-0.030201,0.072701,-0.015969,-0.430280,-0.902554,-0.000648,0.006558,0.005521,-23.066778,-15.708887,-37.945007,,,,,,,
1504280471.650845,-0.018317,0.445269,-2.988363,0.052676,-0.024894,0.057756,-0.016530,-0.430700,-0.902344,-0.002971,0.006460,0.005707,-23.141562,-15.709528,-37.795197,,,,,,,
1504280471.660855,-0.018800,0.445731,-2.987806,0.040003,-0.017317,0.043844,-0.016962,-0.431118,-0.902136,-0.002585,0.002941,0.008292,-23.141562,-15.709528,-37.795197,,,,,,,
1504280471.670864,-0.019206,0.445997,-2.987362,0.011251,-0.016006,0.035253,-0.017326,-0.431358,-0.902015,-0.002647,-0.000756,0.009665,-23.141592,-15.784220,-37.944641,,,,,,,
1504280471.680874,-0.019558,0.446053,-2.986972,-0.013266,-0.014737,0.033074,-0.017643,-0.431408,-0.901984,-0.002544,-0.004352,0.008781,-23.141592,-15.784220,-37.944641,,,,,,,
1504280471.690884,-0.019939,0.445944,-2.986586,-0.027128,-0.014622,0.031983,-0.017988,-0.431310,-0.902024,-0.004061,-0.006220,0.006227,-22.991491,-15.783701,-37.869263,,,,,,,
1504280471.700894,-0.020333,0.445784,-2.986271,-0.031348,-0.015643,0.021304,-0.018344,-0.431166,-0.902086,-0.005825,-0.006838,0.006578,-22.991491,-15.783701,-37.869263,,,,,,,
1504280471.710903,-0.020706,0.445608,-2.986070,-0.031315,-0.017766,0.011702,-0.018682,-0.431006,-0.902156,-0.007029,-0.006051,0.007807,-23.141516,-15.859079,-38.019073,,,,,,,
1504280471.720913,-0.020948,0.445480,-2.985946,-0.024786,-0.006093,0.005289,-0.018902,-0.430891,-0.902206,-0.006336,-0.006014,0.006134,-23.141516,-15.859079,-38.019073,,,,,,,
1504280471.730923,-0.021062,0.445424,-2.985881,-0.015040,0.007684,-0.001122,-0.019006,-0.430841,-0.902228,-0.008506,-0.005408,0.005026,-22.916143,-16.008066,-38.017395,,,,,,,
1504280471.740933,-0.021108,0.445447,-2.985848,-0.007520,0.011886,-0.004318,-0.019047,-0.430861,-0.902217,-0.009381,-0.003923,0.006801,-22.916143,-16.008066,-38.017395,,,,,,,
1504280471.750942,-0.021069,0.445516,-2.985851,0.001044,0.013948,-0.006441,-0.019011,-0.430923,-0.902188,-0.007051,-0.002426,0.005780,-22.916677,-15.708368,-37.869629,,,,,,,
1504280471.760922,-0.021028,0.445660,-2.985885,0.009475,0.002154,-0.004271,-0.018973,-0.431053,-0.902127,0.000586,0.001015,0.003766,-22.916677,-15.708368,-37.869629,,,,,,,
1504280471.770931,-0.021107,0.445760,-2.985936,0.009344,-0.014894,-0.005308,-0.019043,-0.431144,-0.902082,0.000656,0.001105,0.003721,-23.216330,-15.934412,-38.018677,,,,,,,
1504280471.780941,-0.021216,0.445780,-2.986042,0.000743,-0.024410,-0.007442,-0.019141,-0.431162,-0.902072,0.004661,0.002542,0.003039,-23.216330,-15.934412,-38.018677,,,,,,,
1504280471.790951,-0.021269,0.445729,-2.986184,-0.005602,-0.017961,-0.008532,-0.019189,-0.431116,-0.902093,0.006479,0.000406,-0.000175,-22.842047,-15.558023,-37.870575,,,,,,,
1504280471.800961,-0.021184,0.445696,-2.986357,-0.010772,-0.000863,-0.013909,-0.019113,-0.431086,-0.902108,0.004312,-0.003499,-0.000953,-22.842047,-15.558023,-37.870575,,,,,,,
1504280471.810971,-0.020972,0.445613,-2.986559,-0.019174,0.013064,-0.018217,-0.018923,-0.431011,-0.902148,0.001574,-0.004200,0.001452,-23.142050,-15.559366,-37.871307,,,,,,,
1504280471.820980,-0.020665,0.445435,-2.986803,-0.033019,0.015311,-0.019313,-0.018647,-0.430851,-0.902231,0.002686,-0.005612,0.003152,-23.142050,-15.559366,-37.871307,,,,,,,
1504280471.830990,-0.020270,0.445148,-2.987055,-0.040534,0.013238,-0.012919,-0.018294,-0.430592,-0.902362,0.005370,-0.005428,-0.006528,-23.066854,-15.634043,-37.870575,,,,,,,
1504280471.841000,-0.020075,0.444782,-2.987176,-0.034141,0.014247,-0.009707,-0.018121,-0.430261,-0.902523,0.005197,-0.005759,-0.006367,-23.066854,-15.634043,-37.870575,,,,,,,
1504280471.851010,-0.019774,0.444521,-2.987325,-0.019171,0.018387,-0.009689,-0.017851,-0.430025,-0.902640,0.004148,-0.000761,-0.006463,-23.291861,-15.635050,-37.871124,,,,,,,
1504280471.861019,-0.019463,0.444336,-2.987446,-0.001084,0.015038,-0.005383,-0.017572,-0.429858,-0.902725,0.005624,0.006473,-0.005707,-23.291861,-15.635050,-37.871124,,,,,,,
1504280471.871029,-0.019227,0.444216,-2.987560,0.007366,0.005379,-0.004284,-0.017360,-0.429750,-0.902781,0.006618,0.009188,-0.004980,-23.067389,-15.558588,-38.096130,,,,,,,
1504280471.881039,-0.019177,0.444062,-2.987599,0.010456,-0.005306,0.000009,-0.017316,-0.429611,-0.902848,0.004087,0.012482,-0.006774,-23.067389,-15.558588,-38.096130,,,,,,,
1504280471.891049,-0.019169,0.443957,-2.987617,0.018973,-0.006442,0.001093,-0.017310,-0.429516,-0.902893,0.004035,0.012387,-0.010696,-22.991827,-15.783258,-38.094269,,,,,,,
1504280471.901058,-0.019204,0.443957,-2.987570,0.024277,-0.006491,0.006439,-0.017341,-0.429516,-0.902893,0.003516,0.010555,-0.009690,-22.991827,-15.783258,-38.094269,,,,,,,
1504280471.911068,-0.019174,0.444042,-2.987513,0.029696,0.005186,0.007495,-0.017313,-0.429593,-0.902857,0.003168,0.010816,-0.005575,-23.141333,-15.934076,-38.018494,,,,,,,
1504280471.921078,-0.019004,0.444190,-2.987437,0.039422,0.021090,0.007483,-0.017159,-0.429727,-0.902796,0.002236,0.010827,-0.009069,-23.141333,-15.934076,-38.018494,,,,,,,
1504280471.931088,-0.018766,0.444393,-2.987389,0.038373,0.021103,0.003212,-0.016943,-0.429910,-0.902713,0.001379,0.010125,-0.006253,-23.366629,-15.859934,-38.094635,,,,,,,
1504280471.941097,-0.018597,0.444544,-2.987426,0.030834,0.007322,-0.005317,-0.016789,-0.430046,-0.902651,0.001576,0.011070,-0.001646,-23.366629,-15.859934,-38.094635,,,,,,,
1504280471.951107,-0.018561,0.444616,-2.987499,0.025400,-0.005419,-0.006371,-0.016756,-0.430111,-0.902621,0.001589,0.009197,-0.006880,-23.216253,-16.009256,-38.093140,,,,,,,
1504280471.961117,-0.018611,0.444557,-2.987532,0.024276,-0.008612,-0.001030,-0.016801,-0.430058,-0.902645,-0.000228,0.008015,-0.000889,-23.216253,-16.009256,-38.093140,,,,,,,
1504280471.971127,-0.018626,0.444805,-2.987450,0.025426,0.008417,0.009616,-0.016813,-0.430281,-0.902538,-0.000216,0.008239,-0.000996,-23.290686,-16.234598,-38.091644,,,,,,,
1504280471.981137,-0.018569,0.444979,-2.987220,0.028716,0.026493,0.020264,-0.016760,-0.430439,-0.902464,-0.004389,0.006672,0.000303,-23.290686,-16.234598,-38.091644,,,,,,,
1504280471.991146,-0.018447,0.445164,-2.986844,0.025608,0.043558,0.028768,-0.016648,-0.430606,-0.902386,-0.007766,0.007358,0.004086,-23.216146,-16.009409,-38.018127,,,,,,,
1504280472.001156,-0.018290,0.445315,-2.986432,0.015990,0.043632,0.031954,-0.016505,-0.430742,-0.902324,-0.007329,0.005067,0.006267,-23.216146,-16.009409,-38.018127,,,,,,,
1504280472.011166,-0.018304,0.445298,-2.986014,-0.001162,0.030988,0.027678,-0.016519,-0.430727,-0.902331,-0.005103,0.003770,0.004428,-23.141226,-15.934229,-37.943512,,,,,,,
1504280472.021176,-0.018247,0.445233,-2.985773,-0.007693,0.010802,0.021298,-0.016467,-0.430668,-0.902360,-0.005155,0.003712,0.004457,-23.141226,-15.934229,-37.943512,,,,,,,
1504280472.031155,-0.018424,0.445175,-2.985517,-0.000303,-0.000978,0.018130,-0.016627,-0.430616,-0.902382,-0.005163,0.003583,0.002892,-23.216452,-15.934259,-38.093689,,,,,,,
1504280472.041165,-0.018699,0.445240,-2.985304,0.006062,-0.009550,0.011752,-0.016875,-0.430675,-0.902349,-0.006639,0.002467,0.008291,-23.216452,-15.934259,-38.093689,,,,,,,
1504280472.051174,-0.019096,0.445379,-2.985128,0.011386,-0.014918,0.005367,-0.017232,-0.430799,-0.902283,-0.011088,0.004164,0.013459,-23.215948,-16.084421,-38.017548,,,,,,,
1504280472.061184,-0.019487,0.445509,-2.984947,0.010337,-0.010653,0.008561,-0.017584,-0.430917,-0.902220,-0.010889,0.005212,0.013197,-23.215948,-16.084421,-38.017548,,,,,,,
1504280472.071194,-0.019870,0.445666,-2.984739,0.008163,-0.013837,0.011766,-0.017928,-0.431059,-0.902146,-0.010027,0.001951,0.012177,-22.916113,-15.933359,-37.867950,,,,,,,
1504280472.081204,-0.020359,0.445777,-2.984477,-0.000454,-0.022297,0.014969,-0.018368,-0.431159,-0.902089,-0.010242,-0.000710,0.011571,-22.916113,-15.933359,-37.867950,,,,,,,
1504280472.091213,-0.020870,0.445723,-2.984241,-0.015396,-0.024305,0.012813,-0.018829,-0.431110,-0.902103,-0.009705,-0.000286,0.007785,-23.215353,-16.234720,-37.866425,,,,,,,
1504280472.101223,-0.021265,0.445558,-2.984103,-0.021765,-0.024247,0.006398,-0.019187,-0.430962,-0.902166,-0.006264,-0.001548,0.004003,-23.215353,-16.234720,-37.866425,,,,,,,
1504280472.111233,-0.021590,0.445325,-2.984019,-0.027107,-0.025269,0.006391,-0.019483,-0.430752,-0.902260,-0.002749,-0.001728,0.001595,-23.291067,-16.084604,-38.092743,,,,,,,
1504280472.121243,-0.021949,0.445032,-2.983957,-0.028178,-0.028453,0.002126,-0.019810,-0.430487,-0.902380,-0.003078,0.000952,0.001272,-23.291067,-16.084604,-38.092743,,,,,,,
1504280472.131253,-0.022333,0.444727,-2.983931,-0.022832,-0.029560,-0.002132,-0.020159,-0.430211,-0.902503,-0.005018,0.004048,0.000282,-23.291967,-15.634897,-37.946136,,,,,,,
1504280472.141262,-0.022679,0.444485,-2.983951,-0.012146,-0.028581,-0.004250,-0.020474,-0.429993,-0.902600,-0.003543,0.004578,-0.002536,-23.291967,-15.634897,-37.946136,,,,,,,
1504280472.151272,-0.023068,0.444277,-2.983963,-0.006831,-0.030757,-0.004236,-0.020826,-0.429806,-0.902681,-0.004976,0.006344,-0.003111,-23.515875,-15.936365,-37.719452,,,,,,,
1504280472.161282,-0.023542,0.444162,-2.983893,0.010227,-0.028774,0.001128,-0.021256,-0.429701,-0.902721,-0.009506,0.009596,-0.002583,-23.515875,-15.936365,-37.719452,,,,,,,
1504280472.171292,-0.023959,0.444191,-2.983755,0.028388,-0.021473,0.007551,-0.021632,-0.429727,-0.902700,-0.008016,0.011026,-0.004802,-23.366110,-15.935389,-37.869049,,,,,,,
1504280472.181301,-0.024359,0.444370,-2.983595,0.031586,-0.021501,0.007558,-0.021991,-0.429889,-0.902614,-0.007138,0.010409,0.001766,-23.366110,-15.935389,-37.869049,,,,,,,
1504280472.191311,-0.024761,0.444556,-2.983495,0.029345,-0.035334,0.006511,-0.022352,-0.430057,-0.902525,-0.001970,0.009464,0.005186,-23.366476,-15.785395,-37.870178,,,,,,,
1504280472.201321,-0.025076,0.444668,-2.983449,0.023969,-0.039553,0.007576,-0.022635,-0.430158,-0.902470,0.005087,0.008283,-0.002483,-23.366476,-15.785395,-37.870178,,,,,,,
1504280472.211331,-0.025439,0.444733,-2.983375,0.016454,-0.043754,0.009705,-0.022962,-0.430217,-0.902434,0.005811,0.006679,-0.002489,-23.516592,-15.785913,-37.945557,,,,,,,
1504280472.221340,-0.025785,0.444656,-2.983294,0.001579,-0.035107,0.010731,-0.023275,-0.430147,-0.902459,0.004354,0.006808,-0.002327,-23.516592,-15.785913,-37.945557,,,,,,,
1504280472.231350,-0.025984,0.444466,-2.983201,-0.001463,-0.014835,0.010690,-0.023457,-0.429976,-0.902536,0.003056,0.006331,-0.009360,-23.216711,-15.784418,-38.019806,,,,,,,
1504280472.241360,-0.026039,0.444268,-2.983058,0.001920,0.009644,0.012788,-0.023509,-0.429797,-0.902619,-0.002614,0.007617,-0.009978,-23.216711,-15.784418,-38.019806,,,,,,,
1504280472.251370,-0.026059,0.444187,-2.982839,0.007291,0.017053,0.017054,-0.023527,-0.429723,-0.902654,-0.005724,0.007040,-0.004100,-23.366476,-15.785395,-37.870178,,,,,,,
1504280472.261379,-0.026231,0.444128,-2.982577,0.009289,0.001050,0.018154,-0.023683,-0.429670,-0.902675,-0.007231,0.008604,-0.001042,-23.366476,-15.785395,-37.870178,,,,,,,
1504280472.271389,-0.026496,0.444123,-2.982348,0.016649,-0.012863,0.017124,-0.023923,-0.429666,-0.902671,-0.003436,0.008112,-0.003503,-23.740728,-16.087076,-37.868866,,,,,,,
1504280472.281399,-0.026757,0.444261,-2.982188,0.030464,-0.021498,0.013961,-0.024157,-0.429790,-0.902606,0.001253,0.006374,-0.005064,-23.740728,-16.087076,-37.868866,,,,,,,
1504280472.291378,-0.026978,0.444560,-2.982077,0.040080,-0.021574,0.010776,-0.024353,-0.430061,-0.902471,0.002548,0.005012,-0.002314,-23.216253,-15.785013,-37.719818,,,,,,,
1504280472.301388,-0.027165,0.444857,-2.981978,0.031625,-0.014040,0.006478,-0.024518,-0.430329,-0.902339,0.000424,0.005478,0.003307,-23.216253,-15.785013,-37.719818,,,,,,,
1504280472.311398,-0.027290,0.445028,-2.981894,0.018930,-0.001148,0.005366,-0.024629,-0.430483,-0.902262,-0.002776,0.004153,0.002497,-23.366140,-16.010096,-38.018494,,,,,,,
1504280472.321408,-0.027267,0.445114,-2.981791,0.007333,0.017061,0.006382,-0.024607,-0.430561,-0.902226,-0.003713,0.000217,-0.001308,-23.366140,-16.010096,-38.018494,,,,,,,
1504280472.331417,-0.027110,0.445174,-2.981671,0.001038,0.030963,0.007414,-0.024464,-0.430615,-0.902204,-0.004604,-0.001483,0.001844,-23.740576,-16.012522,-37.644409,,,,,,,
1504280472.341427,-0.026894,0.445255,-2.981563,-0.008553,0.032107,0.007396,-0.024269,-0.430688,-0.902175,-0.004128,-0.004523,0.008986,-23.740576,-16.012522,-37.644409,,,,,,,
1504280472.351437,-0.026725,0.445277,-2.981457,-0.019331,0.019406,0.009534,-0.024116,-0.430708,-0.902169,-0.001229,-0.006181,0.012368,-23.216452,-15.934259,-38.093689,,,,,,,
1504280472.361447,-0.026654,0.445188,-2.981347,-0.026932,0.004548,0.012749,-0.024053,-0.430627,-0.902209,0.002538,-0.005377,0.011615,-23.216452,-15.934259,-38.093689,,,,,,,
1504280472.371456,-0.026659,0.445026,-2.981224,-0.034467,-0.002851,0.014884,-0.024059,-0.430482,-0.902279,0.003597,-0.005523,0.012005,-23.365683,-16.010691,-37.718506,,,,,,,
1504280472.381466,-0.026802,0.444855,-2.981110,-0.036659,-0.012420,0.011694,-0.024190,-0.430327,-0.902349,0.001104,-0.005770,0.014501,-23.365683,-16.010691,-37.718506,,,,,,,
1504280472.391476,-0.027018,0.444642,-2.981011,-0.031327,-0.015656,0.007440,-0.024388,-0.430134,-0.902435,-0.001308,-0.002422,0.010910,-23.441336,-15.711176,-37.645935,,,,,,,
1504280472.401486,-0.027340,0.444433,-2.980981,-0.019598,-0.023202,-0.003200,-0.024681,-0.429946,-0.902517,-0.004845,0.002379,0.008230,-23.441336,-15.711176,-37.645935,,,,,,,
1504280472.411495,-0.027734,0.444297,-2.980952,-0.001426,-0.020155,-0.005308,-0.025038,-0.429823,-0.902566,-0.010576,0.007323,0.005761,-23.515921,-16.011057,-37.868866,,,,,,,
1504280472.421505,-0.028143,0.444288,-2.980864,0.020983,-0.016086,0.000062,-0.025408,-0.429815,-0.902560,-0.012785,0.011220,0.000368,-23.515921,-16.011057,-37.868866,,,,,,,
1504280472.431515,-0.028655,0.444419,-2.980651,0.029495,-0.014036,0.007547,-0.025868,-0.429933,-0.902490,-0.016796,0.010073,0.001306,-23.441473,-15.785730,-37.870361,,,,,,,
1504280472.441525,-0.029150,0.444576,-2.980425,0.028395,-0.017229,0.008619,-0.026312,-0.430075,-0.902410,-0.015375,0.008719,0.000447,-23.441473,-15.785730,-37.870361,,,,,,,
1504280472.451534,-0.029550,0.444638,-2.980281,0.016675,-0.018194,0.003265,-0.026673,-0.430131,-0.902372,-0.010039,0.007844,-0.002703,-23.441824,-15.785273,-38.095367,,,,,,,
1504280472.461544,-0.029846,0.444591,-2.980260,0.002788,-0.023403,-0.002087,-0.026940,-0.430089,-0.902385,-0.003623,0.005162,-0.003743,-23.441824,-15.785273,-38.095367,,,,,,,
1504280472.471554,-0.030088,0.444462,-2.980289,-0.010055,-0.027561,-0.001034,-0.027161,-0.429972,-0.902434,0.001190,0.002177,-0.002901,-23.366858,-15.635386,-37.871307,,,,,,,
1504280472.481564,-0.030336,0.444306,-2.980287,-0.013285,-0.028604,0.003232,-0.027386,-0.429832,-0.902494,0.001675,-0.000344,-0.002765,-23.366858,-15.635386,-37.871307,,,,,,,
1504280472.491574,-0.030622,0.444198,-2.980204,-0.012247,-0.027554,0.010703,-0.027646,-0.429734,-0.902532,0.001935,-0.001754,0.000311,-23.666891,-15.487177,-37.648163,,,,,,,
1504280472.501583,-0.030897,0.444230,-2.979996,-0.002620,-0.018054,0.021377,-0.027893,-0.429763,-0.902511,0.001328,-0.006013,-0.000855,-23.666891,-15.487177,-37.648163,,,,,,,
1504280472.511593,-0.031126,0.444307,-2.979682,0.006011,-0.002148,0.027768,-0.028100,-0.429833,-0.902471,-0.002494,-0.002037,0.001348,-23.516897,-15.710764,-38.021118,,,,,,,
1504280472.521603,-0.031246,0.444387,-2.979343,0.005100,0.015976,0.025601,-0.028207,-0.429905,-0.902434,-0.005179,-0.001827,0.000593,-23.516897,-15.710764,-38.021118,,,,,,,
1504280472.531613,-0.031203,0.444417,-2.979051,0.000984,0.030933,0.019163,-0.028168,-0.429931,-0.902422,-0.007614,-0.000977,-0.000471,-23.440725,-16.085718,-37.868134,,,,,,,
1504280472.541622,-0.031005,0.444366,-2.978831,-0.006350,0.043786,0.012724,-0.027989,-0.429886,-0.902449,-0.007350,-0.000458,-0.001024,-23.440725,-16.085718,-37.868134,,,,,,,
1504280472.551632,-0.030688,0.444247,-2.978686,-0.019060,0.051355,0.006285,-0.027705,-0.429778,-0.902509,-0.008077,-0.002473,0.000440,-23.665945,-16.086435,-38.018677,,,,,,,
1504280472.561611,-0.030396,0.444155,-2.978591,-0.021180,0.048181,-0.001184,-0.027442,-0.429695,-0.902557,-0.011010,-0.006432,0.004272,-23.665945,-16.086435,-38.018677,,,,,,,
1504280472.571621,-0.030231,0.444160,-2.978562,-0.020193,0.034322,-0.006494,-0.027294,-0.429700,-0.902559,-0.012730,-0.011157,0.006090,-23.292013,-15.709604,-38.095581,,,,,,,
1504280472.581631,-0.030191,0.444273,-2.978528,-0.017123,0.019373,-0.003259,-0.027256,-0.429801,-0.902512,-0.011379,-0.013924,0.010407,-23.292013,-15.709604,-38.095581,,,,,,,
1504280472.591641,-0.030257,0.444424,-2.978437,-0.022583,0.007687,0.004224,-0.027313,-0.429938,-0.902445,-0.007965,-0.015374,0.015848,-23.517080,-15.635767,-38.021667,,,,,,,
1504280472.601650,-0.030403,0.444473,-2.978313,-0.038678,-0.001777,0.008483,-0.027445,-0.429982,-0.902420,-0.005896,-0.015773,0.019486,-23.517080,-15.635767,-38.021667,,,,,,,
1504280472.611660,-0.030609,0.444264,-2.978202,-0.063334,-0.016494,0.009534,-0.027633,-0.429794,-0.902504,-0.001557,-0.015397,0.017998,-23.517385,-15.560602,-38.097260,,,,,,,
1504280472.621680,-0.030932,0.443752,-2.978079,-0.087004,-0.036554,0.018067,-0.027932,-0.429331,-0.902715,0.003167,-0.013860,0.014409,-23.517385,-15.560602,-38.097260,,,,,,,
1504280472.631690,-0.031509,0.443063,-2.977830,-0.097850,-0.052460,0.028750,-0.028461,-0.428709,-0.902994,0.001698,-0.013690,0.010096,-23.666861,-15.636728,-37.872040,,,,,,,
1504280472.641700,-0.032245,0.442409,-2.977394,-0.084977,-0.037660,0.039420,-0.029136,-0.428117,-0.903253,-0.006738,-0.013838,0.005869,-23.666861,-15.636728,-37.872040,,,,,,,
1504280472.651708,-0.032789,0.442001,-2.976769,-0.050499,0.009995,0.049004,-0.029633,-0.427749,-0.903412,-0.015747,-0.014497,0.000168,-23.742651,-15.411768,-38.023926,,,,,,,
1504280472.661718,-0.033181,0.441921,-2.975917,-0.013935,0.052300,0.059670,-0.029988,-0.427677,-0.903434,-0.029338,-0.009762,0.003471,-23.742651,-15.411768,-38.023926,,,,,,,
1504280472.671728,-0.033571,0.442195,-2.974819,0.021261,0.061574,0.077864,-0.030336,-0.427924,-0.903305,-0.034513,-0.007974,0.007386,-23.366705,-15.560831,-37.646881,,,,,,,
1504280472.681738,-0.034156,0.442722,-2.973528,0.049840,0.042135,0.092895,-0.030857,-0.428401,-0.903062,-0.034298,-0.006811,0.004121,-23.366705,-15.560831,-37.646881,,,,,,,
1504280472.691747,-0.035077,0.443430,-2.972239,0.066542,-0.004894,0.091942,-0.031678,-0.429040,-0.902730,-0.028716,-0.005347,0.002766,-23.666937,-15.561884,-37.797607,,,,,,,
1504280472.701757,-0.036423,0.444143,-2.971167,0.062852,-0.076247,0.076053,-0.032882,-0.429684,-0.902380,-0.018189,-0.002094,0.007101,-23.666937,-15.561884,-37.797607,,,,,,,
1504280472.711767,-0.038057,0.444680,-2.970461,0.047599,-0.132572,0.049441,-0.034348,-0.430169,-0.902095,-0.006698,-0.000694,0.004283,-23.516897,-15.710764,-38.021118,,,,,,,
1504280472.721777,-0.039712,0.444969,-2.970050,0.031544,-0.149472,0.032365,-0.035836,-0.430430,-0.901912,0.001138,0.002100,-0.003224,-23.516897,-15.710764,-38.021118,,,,,,,
1504280472.731786,-0.041236,0.445043,-2.969677,0.009248,-0.132244,0.037633,-0.037208,-0.430497,-0.901825,0.002586,0.003495,-0.002320,-23.667044,-15.561731,-37.872620,,,,,,,
1504280472.741796,-0.042524,0.444841,-2.969118,-0.017147,-0.087288,0.053519,-0.038374,-0.430314,-0.901863,-0.001894,0.004930,-0.000755,-23.667044,-15.561731,-37.872620,,,,,,,
1504280472.751806,-0.043484,0.444317,-2.968241,-0.043485,-0.028493,0.080056,-0.039250,-0.429841,-0.902051,-0.009105,0.005281,-0.003268,-23.741446,-15.712366,-37.721680,,,,,,,
1504280472.761817,-0.044026,0.443670,-2.967058,-0.051736,0.025887,0.109835,-0.039751,-0.429257,-0.902307,-0.010786,0.001615,-0.007117,-23.741446,-15.712366,-37.721680,,,,,,,
1504280472.771826,-0.044279,0.443045,-2.965501,-0.038709,0.072633,0.139664,-0.039991,-0.428693,-0.902565,-0.013933,0.003522,-0.008766,-23.516851,-15.636057,-37.871674,,,,,,,
1504280472.781836,-0.044331,0.442645,-2.963736,-0.006597,0.094728,0.153558,-0.040046,-0.428331,-0.902734,-0.014001,0.008073,-0.006064,-23.516851,-15.636057,-37.871674,,,,,,,
1504280472.791846,-0.044341,0.442644,-2.961910,0.038167,0.091157,0.156846,-0.040054,-0.428330,-0.902734,-0.011582,0.010743,-0.004004,-23.443136,-15.260279,-38.099304,,,,,,,
1504280472.801856,-0.044393,0.442975,-2.960197,0.072141,0.065311,0.148412,-0.040095,-0.428629,-0.902590,-0.002828,0.014948,-0.001462,-23.443136,-15.260279,-38.099304,,,,,,,
1504280472.811866,-0.044661,0.443579,-2.958647,0.093175,0.020396,0.136786,-0.040325,-0.429174,-0.902321,0.005047,0.017599,0.004692,-23.667944,-15.336283,-38.099304,,,,,,,
1504280472.821845,-0.045133,0.444304,-2.957277,0.094016,-0.014761,0.125107,-0.040737,-0.429830,-0.901991,0.012051,0.014623,0.006193,-23.667944,-15.336283,-38.099304,,,,,,,
1504280472.831855,-0.045704,0.445051,-2.956018,0.079034,-0.024218,0.118692,-0.041237,-0.430504,-0.901646,0.013863,0.007698,0.008763,-24.042608,-15.338419,-37.875244,,,,,,,
1504280472.841863,-0.046199,0.445658,-2.954804,0.044970,-0.015408,0.117549,-0.041672,-0.431052,-0.901365,0.015518,0.000525,0.014707,-24.042608,-15.338419,-37.875244,,,,,,,
1504280472.851873,-0.046513,0.445999,-2.953530,0.006760,0.013673,0.124901,-0.041948,-0.431360,-0.901204,0.013643,-0.005087,0.020024,-24.042608,-15.338419,-37.875244,,,,,,,
1504280472.861883,-0.046496,0.446075,-2.952135,-0.022889,0.051200,0.140793,-0.041931,-0.431428,-0.901172,0.014557,-0.009612,0.019108,-24.042608,-15.338419,-37.875244,,,,,,,
1504280472.871893,-0.046134,0.445867,-2.950562,-0.053584,0.091931,0.157744,-0.041609,-0.431240,-0.901277,0.014265,-0.010334,0.023042,-23.817266,-15.337854,-37.649658,,,,,,,
1504280472.881902,-0.045596,0.445398,-2.948793,-0.078008,0.117689,0.176868,-0.041134,-0.430817,-0.901501,0.013393,-0.007186,0.029675,-23.817266,-15.337854,-37.649658,,,,,,,
1504280472.891912,-0.044876,0.444735,-2.946856,-0.097132,0.137014,0.192810,-0.040497,-0.430219,-0.901816,0.015183,-0.008136,0.030798,-23.892462,-15.263193,-37.650421,,,,,,,
1504280472.901922,-0.044065,0.443924,-2.944849,-0.115300,0.137160,0.200248,-0.039781,-0.429486,-0.902197,0.019380,-0.009982,0.032965,-23.892462,-15.263193,-37.650421,,,,,,,
1504280472.911932,-0.043360,0.442968,-2.942895,-0.130370,0.117047,0.195985,-0.039163,-0.428623,-0.902634,0.022271,-0.009823,0.036362,-23.818289,-15.112253,-37.951385,,,,,,,
1504280472.921942,-0.042692,0.441919,-2.941072,-0.132584,0.101096,0.187467,-0.038579,-0.427675,-0.903109,0.026540,-0.009108,0.030444,-23.818289,-15.112253,-37.951385,,,,,,,
1504280472.931952,-0.042103,0.440998,-2.939357,-0.114563,0.081780,0.181124,-0.038064,-0.426843,-0.903525,0.030343,-0.011893,0.024649,-23.893621,-14.887888,-37.803223,,,,,,,
1504280472.941962,-0.041637,0.440423,-2.937651,-0.087973,0.069847,0.180120,-0.037653,-0.426322,-0.903787,0.030985,-0.015847,0.027597,-23.893621,-14.887888,-37.803223,,,,,,,
1504280472.951972,-0.041171,0.440272,-2.935936,-0.054933,0.066383,0.183381,-0.037234,-0.426186,-0.903869,0.035495,-0.023613,0.025329,-23.894751,-14.662149,-38.179901,,,,,,,
1504280472.961982,-0.041342,0.439807,-2.933903,-0.034653,0.069409,0.186613,-0.037397,-0.425764,-0.904061,0.036512,-0.032655,0.020897,-23.894751,-14.662149,-38.179901,,,,,,,
1504280472.971991,-0.041599,0.439358,-2.931793,-0.037964,0.060903,0.195161,-0.037637,-0.425359,-0.904242,0.039941,-0.038051,0.022864,-24.119528,-14.663446,-38.030487,,,,,,,
1504280472.982000,-0.041992,0.438703,-2.929504,-0.063690,0.057898,0.214335,-0.038005,-0.424766,-0.904505,0.045146,-0.046578,0.019373,-24.119528,-14.663446,-38.030487,,,,,,,
1504280472.992010,-0.041553,0.438741,-2.927302,-0.067994,0.069636,0.243121,-0.037606,-0.424800,-0.904506,0.045526,-0.048436,0.007808,-24.120687,-14.288157,-38.183289,,,,,,,
1504280473.002020,-0.041894,0.438150,-2.924309,-0.038074,0.101314,0.284746,-0.037925,-0.424265,-0.904743,0.046577,-0.043691,0.005604,-24.120687,-14.288157,-38.183289,,,,,,,
1504280473.012029,-0.041323,0.438817,-2.921160,0.017387,0.125330,0.329625,-0.037397,-0.424869,-0.904482,0.043821,-0.036954,0.019549,-23.821005,-14.211649,-38.258118,,,,,,,
1504280473.022039,-0.040943,0.440131,-2.917487,0.082259,0.122633,0.370298,-0.037031,-0.426058,-0.903938,0.044691,-0.030775,0.035819,-23.821005,-14.211649,-38.258118,,,,,,,
1504280473.032049,-0.040936,0.442067,-2.913622,0.128873,0.082827,0.375780,-0.036990,-0.427808,-0.903112,0.048465,-0.031390,0.049688,-23.745993,-14.211313,-38.257935,,,,,,,
1504280473.042059,-0.041413,0.444339,-2.910043,0.141286,0.011376,0.342831,-0.037381,-0.429862,-0.902121,0.055630,-0.036050,0.061377,-23.745993,-14.211313,-38.257935,,,,,,,
1504280473.052068,-0.043323,0.445506,-2.906686,0.119677,-0.062970,0.277813,-0.039082,-0.430915,-0.901546,0.074803,-0.047769,0.061214,-23.896414,-13.912439,-38.035553,,,,,,,
1504280473.062078,-0.045477,0.446170,-2.904268,0.057726,-0.124177,0.193489,-0.041011,-0.431513,-0.901174,0.084071,-0.059606,0.059408,-23.896414,-13.912439,-38.035553,,,,,,,
1504280473.072088,-0.047603,0.446092,-2.902740,-0.022154,-0.151151,0.121882,-0.042928,-0.431443,-0.901118,0.086752,-0.070464,0.052379,-23.896002,-14.212000,-38.258301,,,,,,,
1504280473.082067,-0.047575,0.446980,-2.902570,-0.100648,-0.123797,0.078990,-0.042885,-0.432244,-0.900736,0.088051,-0.080176,0.042658,-23.896002,-14.212000,-38.258301,,,,,,,
1504280473.092077,-0.048582,0.445345,-2.901948,-0.180026,-0.054926,0.060585,-0.043826,-0.430770,-0.901397,0.078692,-0.085588,0.039489,-24.271902,-13.763971,-38.112610,,,,,,,
1504280473.102087,-0.048746,0.443052,-2.901396,-0.240175,0.029750,0.062466,-0.044022,-0.428699,-0.902374,0.070435,-0.082395,0.039353,-24.271902,-13.763971,-38.112610,,,,,,,
1504280473.112097,-0.048015,0.440333,-2.900744,-0.274701,0.123793,0.076117,-0.043419,-0.426241,-0.903567,0.058708,-0.075300,0.035556,-24.271109,-13.989267,-37.960938,,,,,,,
1504280473.122107,-0.045536,0.438931,-2.900345,-0.290154,0.199575,0.091961,-0.041206,-0.424972,-0.904268,0.046744,-0.071167,0.033205,-24.271109,-13.989267,-37.960938,,,,,,,
1504280473.132117,-0.043664,0.435937,-2.899459,-0.295255,0.229453,0.092967,-0.039567,-0.422260,-0.905611,0.038575,-0.064907,0.036501,-24.047354,-13.538111,-38.038727,,,,,,,
1504280473.142127,-0.041657,0.433055,-2.898633,-0.280206,0.236799,0.082306,-0.037801,-0.419646,-0.906900,0.034673,-0.061036,0.028238,-24.047354,-13.538111,-38.038727,,,,,,,
1504280473.152137,-0.039485,0.430485,-2.898063,-0.244810,0.242930,0.054604,-0.035873,-0.417312,-0.908055,0.035553,-0.064133,0.017460,-24.048071,-13.387659,-38.264862,,,,,,,
1504280473.162145,-0.036232,0.429651,-2.898123,-0.209404,0.250134,0.031164,-0.032931,-0.416554,-0.908514,0.039386,-0.065746,0.021902,-24.048071,-13.387659,-38.264862,,,,,,,
1504280473.172155,-0.033756,0.427779,-2.897946,-0.179433,0.256291,0.021598,-0.030708,-0.414851,-0.909371,0.046043,-0.072621,0.030633,-23.898703,-13.087137,-38.191742,,,,,,,
1504280473.182165,-0.031276,0.426017,-2.897689,-0.176285,0.256254,0.032278,-0.028476,-0.413247,-0.910173,0.056522,-0.086600,0.035830,-23.898703,-13.087137,-38.191742,,,,,,,
1504280473.192175,-0.028991,0.424195,-2.897218,-0.181825,0.244555,0.054704,-0.026418,-0.411588,-0.910987,0.063420,-0.100284,0.041969,-23.674841,-12.860376,-38.567871,,,,,,,
1504280473.202184,-0.025348,0.424726,-2.897083,-0.191680,0.228640,0.087794,-0.023093,-0.412071,-0.910859,0.071906,-0.110786,0.043229,-23.674841,-12.860376,-38.567871,,,,,,,
1504280473.212194,-0.023670,0.422689,-2.895934,-0.203704,0.210594,0.116625,-0.021585,-0.410214,-0.911734,0.080789,-0.120823,0.045431,-23.750143,-12.785563,-38.643616,,,,,,,
1504280473.222204,-0.022421,0.420588,-2.894449,-0.207345,0.175426,0.148702,-0.020465,-0.408298,-0.912619,0.083698,-0.124585,0.049979,-23.750143,-12.785563,-38.643616,,,,,,,
1504280473.232214,-0.021837,0.418613,-2.892491,-0.188772,0.125142,0.194722,-0.019950,-0.406493,-0.913436,0.086982,-0.127686,0.048980,-23.526052,-12.559107,-38.869781,,,,,,,
1504280473.242224,-0.020217,0.419502,-2.890738,-0.158456,0.069459,0.239691,-0.018463,-0.407306,-0.913105,0.078750,-0.116941,0.041004,-23.526052,-12.559107,-38.869781,,,,,,,
1504280473.252234,-0.021113,0.418179,-2.887947,-0.115307,0.008342,0.261222,-0.019292,-0.406097,-0.913626,0.068044,-0.106217,0.040045,-23.451239,-12.483774,-38.870148,,,,,,,
1504280473.262244,-0.022558,0.417376,-2.885069,-0.059160,-0.039011,0.265672,-0.020619,-0.405363,-0.913923,0.058065,-0.089526,0.036497,-23.451239,-12.483774,-38.870148,,,,,,,
1504280473.272254,-0.024336,0.417184,-2.882181,0.002521,-0.066156,0.262625,-0.022246,-0.405188,-0.913963,0.051482,-0.072626,0.031684,-23.602484,-12.034296,-38.948883,,,,,,,
1504280473.282263,-0.025310,0.419160,-2.879735,0.061177,-0.077274,0.255268,-0.023116,-0.406994,-0.913138,0.040542,-0.058201,0.036277,-23.602484,-12.034296,-38.948883,,,,,,,
1504280473.292273,-0.027283,0.420031,-2.876940,0.102740,-0.085072,0.252151,-0.024908,-0.407789,-0.912736,0.029394,-0.048281,0.038621,-23.677435,-11.959925,-38.799622,,,,,,,
1504280473.302283,-0.029271,0.421085,-2.874171,0.112350,-0.086213,0.248968,-0.026710,-0.408751,-0.912255,0.020286,-0.042757,0.037835,-23.677435,-11.959925,-38.799622,,,,,,,
1504280473.312293,-0.031101,0.421971,-2.871493,0.089077,-0.067895,0.238221,-0.028368,-0.409560,-0.911842,0.014528,-0.043626,0.036751,-23.902029,-12.036234,-38.649628,,,,,,,
1504280473.322303,-0.032363,0.423826,-2.869044,0.043540,-0.035534,0.226343,-0.029494,-0.411251,-0.911045,0.011229,-0.048024,0.033665,-23.902029,-12.036234,-38.649628,,,,,,,
1504280473.332311,-0.033300,0.423805,-2.866700,-0.008250,0.014994,0.209086,-0.030349,-0.411232,-0.911025,0.009292,-0.049904,0.033080,-23.827444,-11.960596,-38.799988,,,,,,,
1504280473.342291,-0.033614,0.423320,-2.864593,-0.052526,0.068661,0.187567,-0.030641,-0.410790,-0.911215,0.008088,-0.052299,0.036993,-23.827444,-11.960596,-38.799988,,,,,,,
1504280473.352300,-0.033405,0.422532,-2.862733,-0.079873,0.105138,0.167174,-0.030462,-0.410071,-0.911545,0.008382,-0.050897,0.043884,-23.902105,-11.961390,-38.575195,,,,,,,
1504280473.362310,-0.032769,0.423019,-2.861187,-0.087184,0.110551,0.149006,-0.029875,-0.410516,-0.911364,0.008986,-0.041724,0.048312,-23.902105,-11.961390,-38.575195,,,,,,,
1504280473.372320,-0.032326,0.422215,-2.859703,-0.071180,0.101909,0.135173,-0.029482,-0.409782,-0.911707,0.011690,-0.033334,0.053522,-23.752996,-11.511011,-38.428192,,,,,,,
1504280473.382330,-0.032000,0.421641,-2.858286,-0.046735,0.086795,0.129905,-0.029192,-0.409259,-0.911951,0.017336,-0.032682,0.054194,-23.752996,-11.511011,-38.428192,,,,,,,
1504280473.392339,-0.031871,0.421293,-2.856948,-0.027693,0.061072,0.121444,-0.029080,-0.408941,-0.912097,0.021115,-0.035273,0.057041,-23.978796,-11.286722,-38.580444,,,,,,,
1504280473.402349,-0.031313,0.422536,-2.856050,-0.021430,0.028019,0.101227,-0.028554,-0.410075,-0.911605,0.026907,-0.040319,0.054320,-23.978796,-11.286722,-38.580444,,,,,,,
1504280473.412359,-0.031650,0.422291,-2.855181,-0.021545,-0.004983,0.071398,-0.028865,-0.409851,-0.911696,0.033030,-0.048661,0.045058,-23.603613,-11.360041,-38.578949,,,,,,,
1504280473.422369,-0.032143,0.422048,-2.854658,-0.021643,-0.035853,0.041565,-0.029318,-0.409630,-0.911781,0.036795,-0.050407,0.038505,-23.603613,-11.360041,-38.578949,,,,,,,
1504280473.432379,-0.032740,0.421808,-2.854415,-0.024874,-0.054982,0.017043,-0.029865,-0.409411,-0.911861,0.040546,-0.052671,0.036693,-23.978231,-11.511728,-38.578735,,,,,,,
1504280473.442389,-0.032296,0.423129,-2.854751,-0.030134,-0.054914,0.007420,-0.029442,-0.410616,-0.911333,0.039208,-0.054106,0.035051,-23.978231,-11.511728,-38.578735,,,,,,,
1504280473.452399,-0.031799,0.424380,-2.855050,-0.036372,-0.035672,0.010570,-0.028973,-0.411756,-0.910833,0.036496,-0.057360,0.029272,-23.978262,-11.362162,-38.354889,,,,,,,
1504280473.462409,-0.031086,0.425599,-2.855286,-0.048853,0.001739,0.011544,-0.028308,-0.412867,-0.910351,0.032810,-0.065649,0.022153,-23.978262,-11.362162,-38.354889,,,,,,,
1504280473.472419,-0.029998,0.426710,-2.855570,-0.081554,0.039326,0.002877,-0.027304,-0.413878,-0.909923,0.031104,-0.076067,0.019206,-24.128561,-11.287699,-38.430817,,,,,,,
1504280473.482427,-0.028567,0.427409,-2.856097,-0.119677,0.056727,-0.020708,-0.025994,-0.414514,-0.909672,0.031701,-0.080267,0.010837,-24.128561,-11.287699,-38.430817,,,,,,,
1504280473.492437,-0.026955,0.427649,-2.856945,-0.144129,0.048443,-0.046360,-0.024525,-0.414733,-0.909613,0.035069,-0.080217,-0.002024,-23.903753,-11.211679,-38.430817,,,,,,,
1504280473.502447,-0.026454,0.426178,-2.857627,-0.149687,0.011209,-0.061247,-0.024085,-0.413394,-0.910234,0.041648,-0.082334,-0.006499,-23.903753,-11.211679,-38.430817,,,,,,,
1504280473.512457,-0.026364,0.424766,-2.858428,-0.139345,-0.035753,-0.070753,-0.024018,-0.412107,-0.910819,0.046876,-0.083147,-0.005807,-23.979315,-10.987024,-38.432678,,,,,,,
1504280473.522466,-0.026640,0.423661,-2.859266,-0.100119,-0.069106,-0.073828,-0.024282,-0.411101,-0.911266,0.047918,-0.080583,-0.011555,-23.979315,-10.987024,-38.432678,,,,,,,
1504280473.532476,-0.025843,0.424399,-2.860532,-0.051068,-0.070569,-0.066279,-0.023548,-0.411773,-0.910982,0.047825,-0.074814,-0.021300,-23.903799,-11.062128,-38.206940,,,,,,,
1504280473.542486,-0.026202,0.424181,-2.861149,-0.015820,-0.057021,-0.052365,-0.023877,-0.411574,-0.911063,0.044355,-0.070527,-0.027032,-23.903799,-11.062128,-38.206940,,,,,,,
1504280473.552496,-0.026454,0.424267,-2.861528,0.013064,-0.032775,-0.028875,-0.024105,-0.411653,-0.911022,0.038296,-0.069366,-0.040608,-23.904318,-10.986673,-38.432495,,,,,,,
1504280473.562505,-0.026536,0.424604,-2.861636,0.037706,-0.005296,-0.005398,-0.024177,-0.411960,-0.910881,0.037284,-0.070462,-0.058220,-23.904318,-10.986673,-38.432495,,,,,,,
1504280473.572515,-0.025521,0.425937,-2.861952,0.044183,0.011696,0.009519,-0.023238,-0.413174,-0.910356,0.036879,-0.073765,-0.069396,-23.979589,-10.837168,-38.358826,,,,,,,
1504280473.582525,-0.025502,0.426242,-2.861815,0.025981,0.004385,0.010568,-0.023217,-0.413452,-0.910230,0.041085,-0.075501,-0.080477,-23.979589,-10.837168,-38.358826,,,,,,,
1504280473.592535,-0.025649,0.426362,-2.861813,0.008764,-0.023163,-0.004357,-0.023351,-0.413561,-0.910177,0.048131,-0.074644,-0.097269,-24.204275,-10.913324,-38.283813,,,,,,,
1504280473.602515,-0.026018,0.426615,-2.862052,0.033194,-0.052110,-0.028814,-0.023683,-0.413791,-0.910064,0.043825,-0.065640,-0.119126,-24.204275,-10.913324,-38.283813,,,,,,,
1504280473.612525,-0.026349,0.427436,-2.862597,0.100539,-0.054765,-0.058580,-0.023976,-0.414539,-0.909716,0.036336,-0.046795,-0.133757,-24.204626,-10.688623,-38.135498,,,,,,,
1504280473.622502,-0.026381,0.429213,-2.863418,0.203321,-0.026812,-0.085136,-0.023985,-0.416155,-0.908977,0.019545,-0.019560,-0.133152,-24.204626,-10.688623,-38.135498,,,,,,,
1504280473.632512,-0.025847,0.432202,-2.864310,0.329709,0.031825,-0.089290,-0.023468,-0.418872,-0.907742,-0.003830,0.014300,-0.128253,-24.279135,-10.839121,-38.059570,,,,,,,
1504280473.642522,-0.024719,0.436349,-2.865162,0.436876,0.091680,-0.088143,-0.022401,-0.422633,-0.906024,-0.027465,0.039058,-0.120297,-24.279135,-10.839121,-38.059570,,,,,,,
1504280473.652532,-0.023059,0.441241,-2.866054,0.500227,0.138051,-0.094519,-0.020848,-0.427062,-0.903982,-0.047343,0.058211,-0.103571,-24.053045,-11.138559,-37.831757,,,,,,,
1504280473.662542,-0.021756,0.445052,-2.866787,0.515383,0.160307,-0.107336,-0.019635,-0.430505,-0.902375,-0.052646,0.068475,-0.104156,-24.053045,-11.138559,-37.831757,,,,,,,
1504280473.672551,-0.019699,0.450068,-2.867953,0.488697,0.152013,-0.118042,-0.017736,-0.435026,-0.900243,-0.060618,0.079405,-0.103831,-23.602255,-11.586084,-38.052277,,,,,,,
1504280473.682561,-0.017841,0.454562,-2.869203,0.430872,0.123722,-0.121295,-0.016029,-0.439069,-0.898310,-0.062249,0.085386,-0.100240,-23.602255,-11.586084,-38.052277,,,,,,,
1504280473.692571,-0.016275,0.458434,-2.870518,0.368739,0.089074,-0.126678,-0.014594,-0.442544,-0.896628,-0.063226,0.084878,-0.100763,-23.900625,-11.963327,-37.600189,,,,,,,
1504280473.702581,-0.016618,0.459091,-2.871332,0.300057,0.035289,-0.141636,-0.014897,-0.443133,-0.896332,-0.064388,0.087420,-0.092209,-23.900625,-11.963327,-37.600189,,,,,,,
1504280473.712590,-0.015982,0.461667,-2.873017,0.239923,-0.024935,-0.160848,-0.014308,-0.445441,-0.895197,-0.066472,0.094718,-0.078680,-23.900412,-12.187876,-37.823486,,,,,,,
1504280473.722600,-0.015782,0.463847,-2.874914,0.210807,-0.074759,-0.178956,-0.014114,-0.447392,-0.894226,-0.068253,0.099782,-0.072494,-23.900412,-12.187876,-37.823486,,,,,,,
1504280473.732610,-0.015770,0.466089,-2.877099,0.226753,-0.099370,-0.206638,-0.014087,-0.449396,-0.893222,-0.077099,0.102136,-0.059842,-23.749395,-12.412806,-37.521423,,,,,,,
1504280473.742620,-0.018237,0.465736,-2.878444,0.274864,-0.098703,-0.235357,-0.016293,-0.449081,-0.893343,-0.083133,0.105315,-0.032576,-23.749395,-12.412806,-37.521423,,,,,,,
1504280473.752629,-0.017763,0.468903,-2.881198,0.322154,-0.068169,-0.255610,-0.015845,-0.451908,-0.891924,-0.088388,0.115268,-0.010191,-23.898520,-12.713633,-37.444519,,,,,,,
1504280473.762639,-0.016886,0.472346,-2.884110,0.340622,-0.034210,-0.267379,-0.015036,-0.454976,-0.890377,-0.093789,0.120580,0.012905,-23.898520,-12.713633,-37.444519,,,,,,,
1504280473.772649,-0.015593,0.475588,-2.887173,0.308941,-0.001966,-0.281367,-0.013862,-0.457861,-0.888915,-0.093071,0.122962,0.027557,-23.672766,-13.012613,-37.441711,,,,,,,
1504280473.782659,-0.015907,0.476267,-2.889524,0.240964,0.028427,-0.300738,-0.014137,-0.458465,-0.888600,-0.079369,0.114166,0.030659,-23.672766,-13.012613,-37.441711,,,,,,,
1504280473.792668,-0.013855,0.478050,-2.893083,0.150517,0.044115,-0.324405,-0.012301,-0.460049,-0.887808,-0.061246,0.098797,0.032004,-23.672613,-12.938074,-37.217316,,,,,,,
1504280473.802678,-0.011629,0.478971,-2.896945,0.067421,0.043760,-0.350166,-0.010320,-0.460866,-0.887410,-0.047816,0.086629,0.040013,-23.672613,-12.938074,-37.217316,,,,,,,
1504280473.812688,-0.009352,0.479119,-2.901074,-0.005105,0.033724,-0.371622,-0.008299,-0.460997,-0.887363,-0.037554,0.079100,0.051303,-23.447134,-13.087214,-37.140594,,,,,,,
1504280473.822698,-0.008100,0.477847,-2.905060,-0.063850,0.010781,-0.398362,-0.007192,-0.459869,-0.887958,-0.034205,0.068771,0.066943,-23.447134,-13.087214,-37.140594,,,,,,,
1504280473.832708,-0.006139,0.476926,-2.909713,-0.103551,-0.027236,-0.414374,-0.005454,-0.459051,-0.888393,-0.028191,0.063055,0.083401,-23.521338,-13.312845,-36.989105,,,,,,,
1504280473.842717,-0.004533,0.475659,-2.914423,-0.136906,-0.064254,-0.417569,-0.004030,-0.457925,-0.888982,-0.021132,0.058129,0.090535,-23.521338,-13.312845,-36.989105,,,,,,,
1504280473.852727,-0.003248,0.474042,-2.919147,-0.172357,-0.095928,-0.419710,-0.002890,-0.456486,-0.889726,-0.019037,0.048833,0.091813,-23.446493,-13.387064,-37.213379,,,,,,,
1504280473.862706,-0.002325,0.472092,-2.923896,-0.202526,-0.134039,-0.421829,-0.002071,-0.454750,-0.890617,-0.020466,0.044777,0.087562,-23.446493,-13.387064,-37.213379,,,,,,,
1504280473.872716,-0.001746,0.470039,-2.928644,-0.204906,-0.164922,-0.421779,-0.001557,-0.452921,-0.891549,-0.026000,0.043269,0.070748,-23.447439,-13.012064,-37.216187,,,,,,,
1504280473.882726,-0.001434,0.468138,-2.933319,-0.185911,-0.186398,-0.414236,-0.001280,-0.451225,-0.892409,-0.036257,0.036751,0.058150,-23.447439,-13.012064,-37.216187,,,,,,,
1504280473.892736,-0.001375,0.466271,-2.937863,-0.190365,-0.202357,-0.402475,-0.001228,-0.449558,-0.893250,-0.048851,0.032505,0.055359,-23.447241,-13.087061,-37.215607,,,,,,,
1504280473.902745,-0.002873,0.463981,-2.941682,-0.219359,-0.218129,-0.390746,-0.002569,-0.447512,-0.894274,-0.055338,0.030382,0.044772,-23.447241,-13.087061,-37.215607,,,,,,,
1504280473.912755,-0.003127,0.461434,-2.945984,-0.268457,-0.214537,-0.381231,-0.002800,-0.445233,-0.895411,-0.056434,0.024349,0.021845,-23.597464,-12.863184,-36.992676,,,,,,,
1504280473.922765,-0.003256,0.458397,-2.950212,-0.317398,-0.193893,-0.376015,-0.002920,-0.442511,-0.896758,-0.054209,0.017936,0.003448,-23.597464,-12.863184,-36.992676,,,,,,,
1504280473.932775,-0.003163,0.455020,-2.954239,-0.340708,-0.159625,-0.353700,-0.002841,-0.439480,-0.898248,-0.052533,0.017911,-0.007682,-23.372213,-13.012018,-37.065979,,,,,,,
1504280473.942784,-0.004471,0.451066,-2.957214,-0.307481,-0.118392,-0.320615,-0.004024,-0.435926,-0.899974,-0.050618,0.019651,-0.013173,-23.372213,-13.012018,-37.065979,,,,,,,
1504280473.952794,-0.003877,0.448692,-2.960485,-0.212325,-0.070197,-0.283176,-0.003493,-0.433787,-0.901009,-0.053865,0.021495,-0.011482,-23.746908,-13.088861,-36.991364,,,,,,,
1504280473.962804,-0.003018,0.447538,-2.963259,-0.082019,-0.023368,-0.236067,-0.002721,-0.432747,-0.901511,-0.054744,0.028786,-0.000115,-23.746908,-13.088861,-36.991364,,,,,,,
1504280473.972814,-0.001968,0.447657,-2.965517,0.040781,0.016069,-0.193228,-0.001774,-0.432855,-0.901462,-0.051403,0.034356,0.015430,-23.222586,-12.861338,-37.066742,,,,,,,
1504280473.982824,-0.002472,0.448245,-2.966758,0.101621,0.032579,-0.172859,-0.002228,-0.433384,-0.901206,-0.047089,0.026417,0.029579,-23.222586,-12.861338,-37.066742,,,,,,,
1504280473.992833,-0.001450,0.449275,-2.968693,0.097210,0.011309,-0.178166,-0.001306,-0.434312,-0.900761,-0.032507,0.012315,0.036092,-23.297583,-12.861689,-37.066925,,,,,,,
1504280474.002843,-0.000674,0.449992,-2.970838,0.061820,-0.024608,-0.199512,-0.000607,-0.434958,-0.900450,-0.013965,-0.003472,0.026839,-23.297583,-12.861689,-37.066925,,,,,,,
1504280474.012853,-0.000139,0.450311,-2.973181,0.023222,-0.056245,-0.212332,-0.000125,-0.435246,-0.900312,-0.000806,-0.016475,0.016172,-23.297201,-13.011683,-37.065796,,,,,,,
1504280474.022863,0.000265,0.451314,-2.975595,-0.004711,-0.080525,-0.209136,0.000239,-0.436149,-0.899875,0.003606,-0.022973,0.023379,-23.297201,-13.011683,-37.065796,,,,,,,
1504280474.032872,0.000420,0.451181,-2.977773,-0.014370,-0.076202,-0.191015,0.000378,-0.436028,-0.899933,0.002460,-0.025398,0.030396,-23.072134,-12.861261,-36.766357,,,,,,,
1504280474.042882,0.000746,0.451058,-2.979743,-0.010995,-0.043215,-0.172921,0.000671,-0.435918,-0.899986,-0.008117,-0.022746,0.033577,-23.072134,-12.861261,-36.766357,,,,,,,
1504280474.052892,0.001422,0.450932,-2.981542,-0.014980,0.001558,-0.158063,0.001280,-0.435805,-0.900040,-0.016982,-0.019243,0.041215,-23.446569,-13.087961,-36.765594,,,,,,,
1504280474.062902,0.001870,0.451754,-2.982923,-0.047704,0.048697,-0.148591,0.001683,-0.436545,-0.899681,-0.018773,-0.018915,0.045280,-23.446569,-13.087961,-36.765594,,,,,,,
1504280474.072911,0.003300,0.450875,-2.984538,-0.100813,0.081098,-0.144471,0.002970,-0.435753,-0.900061,-0.017344,-0.020821,0.042441,-23.371725,-13.162165,-36.989868,,,,,,,
1504280474.082921,0.005033,0.449488,-2.986098,-0.150710,0.115603,-0.139281,0.004533,-0.434504,-0.900658,-0.011919,-0.021917,0.028771,-23.371725,-13.162165,-36.989868,,,,,,,
1504280474.092931,0.006954,0.447738,-2.987509,-0.180517,0.133947,-0.123354,0.006268,-0.432927,-0.901407,-0.006467,-0.022135,0.021723,-23.147131,-13.085855,-37.139862,,,,,,,
1504280474.102941,0.008662,0.446791,-2.988650,-0.178492,0.129647,-0.105196,0.007812,-0.432074,-0.901804,-0.005569,-0.020090,0.024531,-23.147131,-13.085855,-37.139862,,,,,,,
1504280474.112950,0.010228,0.445240,-2.989611,-0.142493,0.109081,-0.082681,0.009231,-0.430675,-0.902460,-0.011123,-0.017583,0.024515,-22.922781,-12.784998,-37.066559,,,,,,,
1504280474.122960,0.011383,0.444263,-2.990314,-0.081007,0.075514,-0.056898,0.010278,-0.429793,-0.902869,-0.016641,-0.014253,0.025946,-22.922781,-12.784998,-37.066559,,,,,,,
1504280474.132939,0.012017,0.443942,-2.990696,-0.015300,0.038712,-0.026832,0.010852,-0.429502,-0.903000,-0.020449,-0.008944,0.033951,-22.922018,-13.085001,-37.064301,,,,,,,
1504280474.142949,0.011385,0.445018,-2.990338,0.044041,0.009404,0.010688,0.010276,-0.430474,-0.902544,-0.021934,-0.006949,0.037844,-22.922018,-13.085001,-37.064301,,,,,,,
1504280474.152959,0.011134,0.445738,-2.989937,0.075709,-0.011140,0.046003,0.010046,-0.431124,-0.902237,-0.025777,-0.011366,0.041382,-22.922476,-12.860147,-36.990997,,,,,,,
1504280474.162969,0.010531,0.446614,-2.989100,0.086064,-0.025120,0.086607,0.009498,-0.431914,-0.901865,-0.023109,-0.015047,0.041712,-22.922476,-12.860147,-36.990997,,,,,,,
1504280474.172979,0.009080,0.448507,-2.987624,0.075354,-0.018669,0.108998,0.008182,-0.433620,-0.901058,-0.019702,-0.018803,0.035260,-23.073080,-12.486261,-36.769196,,,,,,,
1504280474.182988,0.007623,0.450312,-2.986005,0.051011,0.003898,0.109991,0.006863,-0.435246,-0.900285,-0.025097,-0.028255,0.029100,-23.073080,-12.486261,-36.769196,,,,,,,
1504280474.192998,0.006470,0.451866,-2.984459,0.029833,0.020050,0.107797,0.005820,-0.436645,-0.899615,-0.022651,-0.031799,0.022540,-23.072821,-12.636118,-36.843079,,,,,,,
1504280474.203008,0.005531,0.453215,-2.982966,0.018163,0.026531,0.108838,0.004972,-0.437858,-0.899030,-0.019926,-0.032921,0.017759,-23.072821,-12.636118,-36.843079,,,,,,,
1504280474.213018,0.004568,0.454532,-2.981360,0.018055,0.021180,0.125930,0.004104,-0.439042,-0.898457,-0.018097,-0.036941,0.012105,-23.148031,-12.636164,-36.993256,,,,,,,
1504280474.223027,0.003328,0.455929,-2.979414,0.029404,-0.004536,0.166561,0.002988,-0.440297,-0.897847,-0.015195,-0.040569,0.006353,-23.148031,-12.636164,-36.993256,,,,,,,
1504280474.233037,0.001615,0.457459,-2.976910,0.040627,-0.036659,0.222145,0.001449,-0.441670,-0.897177,-0.011627,-0.044506,0.001791,-23.148184,-12.486460,-36.844391,,,,,,,
1504280474.243047,-0.000589,0.459065,-2.973811,0.039295,-0.043095,0.269123,-0.000528,-0.443110,-0.896467,-0.014502,-0.051824,-0.004717,-23.148184,-12.486460,-36.844391,,,,,,,
1504280474.253057,-0.002918,0.460675,-2.970323,0.038200,-0.031400,0.297924,-0.002614,-0.444553,-0.895749,-0.016322,-0.059140,-0.013950,-23.223257,-12.411936,-36.770111,,,,,,,
1504280474.263066,-0.004585,0.461046,-2.966885,0.039387,-0.009045,0.309628,-0.004106,-0.444886,-0.895578,-0.020872,-0.061310,-0.021475,-23.223257,-12.411936,-36.770111,,,,,,,
1504280474.273076,-0.006106,0.461510,-2.963327,0.052275,0.008952,0.321360,-0.005467,-0.445300,-0.895365,-0.028728,-0.060299,-0.023901,-22.923269,-12.410593,-36.769379,,,,,,,
1504280474.283086,-0.007738,0.462185,-2.959585,0.075598,0.000219,0.337427,-0.006926,-0.445905,-0.895054,-0.030870,-0.063540,-0.027218,-22.923269,-12.410593,-36.769379,,,,,,,
1504280474.293096,-0.010453,0.464197,-2.955360,0.097846,-0.018095,0.343909,-0.009347,-0.447705,-0.894133,-0.030326,-0.066700,-0.030947,-23.224127,-12.111795,-36.847382,,,,,,,
1504280474.303106,-0.012479,0.465376,-2.951475,0.130819,-0.030090,0.345055,-0.011151,-0.448759,-0.893583,-0.029590,-0.070696,-0.041597,-23.224127,-12.111795,-36.847382,,,,,,,
1504280474.313115,-0.014501,0.466900,-2.947592,0.167135,-0.025061,0.345109,-0.012948,-0.450120,-0.892874,-0.029563,-0.071913,-0.049616,-23.299063,-11.962732,-36.548676,,,,,,,
1504280474.323125,-0.016307,0.468873,-2.943639,0.215371,0.007568,0.352607,-0.014547,-0.451881,-0.891960,-0.035441,-0.068169,-0.053963,-23.299063,-11.962732,-36.548676,,,,,,,
1504280474.333135,-0.018766,0.472047,-2.939036,0.268999,0.051854,0.369708,-0.016712,-0.454711,-0.890482,-0.042782,-0.066774,-0.063268,-23.073492,-12.186716,-36.546448,,,,,,,
1504280474.343145,-0.019998,0.474975,-2.934639,0.308636,0.084540,0.389999,-0.017783,-0.457316,-0.889126,-0.050896,-0.066640,-0.062549,-23.073492,-12.186716,-36.546448,,,,,,,
1504280474.353154,-0.021142,0.478183,-2.930015,0.332181,0.103510,0.406018,-0.018769,-0.460167,-0.887634,-0.052123,-0.062843,-0.066651,-23.373114,-12.338068,-36.546051,,,,,,,
1504280474.363164,-0.022151,0.481368,-2.925422,0.322712,0.114254,0.396376,-0.019632,-0.462992,-0.886145,-0.047613,-0.059667,-0.081155,-23.373114,-12.338068,-36.546051,,,,,,,
1504280474.373174,-0.023366,0.484395,-2.920882,0.302721,0.132558,0.369628,-0.020676,-0.465673,-0.884715,-0.041961,-0.049983,-0.094273,-23.222921,-12.412394,-36.545105,,,,,,,
1504280474.383184,-0.023593,0.487279,-2.916742,0.295738,0.185908,0.357780,-0.020845,-0.468223,-0.883364,-0.028761,-0.030327,-0.114225,-23.222921,-12.412394,-36.545105,,,,,,,
1504280474.393163,-0.023206,0.490289,-2.912528,0.315419,0.252866,0.369438,-0.020471,-0.470881,-0.881959,-0.018363,-0.010289,-0.126403,-23.522696,-12.638285,-36.769165,,,,,,,
1504280474.403173,-0.022483,0.493436,-2.907936,0.326254,0.297492,0.407804,-0.019799,-0.473655,-0.880488,-0.007911,0.004356,-0.119817,-23.522696,-12.638285,-36.769165,,,,,,,
1504280474.413182,-0.021921,0.496573,-2.902763,0.319612,0.300688,0.461157,-0.019272,-0.476415,-0.879009,0.008285,0.014470,-0.115528,-23.372702,-12.413370,-36.395477,,,,,,,
1504280474.423192,-0.021863,0.499532,-2.897130,0.299945,0.263520,0.494278,-0.019190,-0.479015,-0.877597,0.020334,0.016018,-0.120557,-23.372702,-12.413370,-36.395477,,,,,,,
1504280474.433202,-0.022264,0.501976,-2.891453,0.280260,0.206138,0.497547,-0.019516,-0.481159,-0.876416,0.029098,0.016330,-0.126086,-23.372580,-12.637766,-36.693787,,,,,,,
1504280474.443212,-0.023395,0.504577,-2.885900,0.271282,0.134843,0.472039,-0.020478,-0.483437,-0.875139,0.038148,0.028847,-0.127210,-23.372580,-12.637766,-36.693787,,,,,,,
1504280474.453221,-0.025038,0.507284,-2.880795,0.286955,0.065497,0.427358,-0.021882,-0.485805,-0.873793,0.035692,0.053264,-0.125016,-23.222509,-12.487696,-36.394562,,,,,,,
1504280474.463231,-0.027171,0.510289,-2.876190,0.319689,-0.005056,0.382708,-0.023706,-0.488430,-0.872281,0.034662,0.078640,-0.118075,-23.222509,-12.487696,-36.394562,,,,,,,
1504280474.473241,-0.029039,0.510933,-2.872373,0.354447,-0.076695,0.348735,-0.025327,-0.488992,-0.871921,0.034193,0.104699,-0.102765,-23.148489,-12.187052,-36.546631,,,,,,,
1504280474.483251,-0.032196,0.514519,-2.868429,0.372208,-0.136494,0.328591,-0.028023,-0.492116,-0.870079,0.034370,0.127797,-0.087517,-23.148489,-12.187052,-36.546631,,,,,,,
1504280474.493261,-0.035833,0.518080,-2.864530,0.364384,-0.182248,0.326523,-0.031124,-0.495213,-0.868214,0.042446,0.141636,-0.075008,-22.922705,-12.411341,-36.394379,,,,,,,
1504280474.503270,-0.039788,0.521346,-2.860546,0.330051,-0.200091,0.336102,-0.034493,-0.498048,-0.866463,0.046654,0.157792,-0.065528,-22.922705,-12.411341,-36.394379,,,,,,,
1504280474.513280,-0.042355,0.519706,-2.857066,0.279944,-0.176239,0.350913,-0.036752,-0.496625,-0.867187,0.045602,0.166806,-0.057358,-23.596869,-12.564981,-36.094940,,,,,,,
1504280474.523290,-0.045783,0.521890,-2.852922,0.216396,-0.120300,0.346435,-0.039674,-0.498519,-0.865970,0.042100,0.167495,-0.049756,-23.596869,-12.564981,-36.094940,,,,,,,
1504280474.533300,-0.048268,0.523197,-2.849083,0.119062,-0.035286,0.317297,-0.041795,-0.499652,-0.865218,0.037156,0.167559,-0.036470,-23.671347,-12.640757,-35.869507,,,,,,,
1504280474.543309,-0.049707,0.523400,-2.845657,0.006769,0.047720,0.289203,-0.043035,-0.499828,-0.865055,0.038717,0.164409,-0.025479,-23.671347,-12.640757,-35.869507,,,,,,,
1504280474.553319,-0.048504,0.518001,-2.843348,-0.090731,0.129540,0.271807,-0.042124,-0.495144,-0.867789,0.043437,0.150601,-0.021554,-23.521536,-12.565088,-35.869720,,,,,,,
1504280474.563329,-0.048230,0.516379,-2.840417,-0.168130,0.182405,0.258770,-0.041925,-0.493734,-0.868602,0.043757,0.139776,-0.013555,-23.521536,-12.565088,-35.869720,,,,,,,
1504280474.573339,-0.047622,0.514154,-2.837691,-0.222372,0.194589,0.243711,-0.041450,-0.491799,-0.869722,0.045096,0.129219,0.004701,-23.597540,-12.339823,-36.171600,,,,,,,
1504280474.583348,-0.046956,0.511564,-2.835238,-0.252252,0.179940,0.221270,-0.040930,-0.489541,-0.871019,0.051046,0.120065,0.014635,-23.597540,-12.339823,-36.171600,,,,,,,
1504280474.593358,-0.044729,0.506332,-2.833885,-0.263253,0.134244,0.205312,-0.039104,-0.484973,-0.873654,0.055919,0.109714,0.022672,-23.448828,-11.963694,-36.399048,,,,,,,
1504280474.603368,-0.044932,0.503574,-2.831724,-0.266981,0.065016,0.200090,-0.039341,-0.482559,-0.874979,0.062763,0.104691,0.035319,-23.448828,-11.963694,-36.399048,,,,,,,
1504280474.613378,-0.045825,0.500800,-2.829580,-0.268590,-0.002104,0.201273,-0.040184,-0.480127,-0.876278,0.063499,0.099436,0.039654,-23.374136,-11.663965,-36.101135,,,,,,,
1504280474.623361,-0.047272,0.498041,-2.827349,-0.263653,-0.045845,0.210966,-0.041514,-0.477706,-0.877539,0.062037,0.097426,0.040487,-23.374136,-11.663965,-36.101135,,,,,,,
1504280474.633371,-0.047120,0.493305,-2.825760,-0.247810,-0.047046,0.233402,-0.041487,-0.473539,-0.879795,0.054396,0.096190,0.041492,-23.524847,-11.514185,-36.327606,,,,,,,
1504280474.643381,-0.048639,0.490973,-2.822973,-0.212451,-0.009008,0.264351,-0.042876,-0.471484,-0.880832,0.044921,0.098025,0.038989,-23.524847,-11.514185,-36.327606,,,,,,,
1504280474.653360,-0.049843,0.489006,-2.819784,-0.173808,0.042851,0.300618,-0.043983,-0.469749,-0.881704,0.032158,0.098701,0.045095,-23.451544,-10.838846,-36.332489,,,,,,,
1504280474.663370,-0.050825,0.487282,-2.816199,-0.152361,0.075675,0.331552,-0.044890,-0.468226,-0.882468,0.023116,0.097285,0.051932,-23.451544,-10.838846,-36.332489,,,,,,,
1504280474.673380,-0.051326,0.483908,-2.812653,-0.147110,0.075624,0.342234,-0.045413,-0.465242,-0.884018,0.018268,0.089891,0.050751,-23.375753,-11.063807,-36.180603,,,,,,,
1504280474.683390,-0.052529,0.482338,-2.808987,-0.135590,0.039314,0.327374,-0.046515,-0.463852,-0.884691,0.021170,0.076737,0.042634,-23.375753,-11.063807,-36.180603,,,,,,,
1504280474.693399,-0.053988,0.480985,-2.805624,-0.112278,-0.001336,0.294397,-0.047839,-0.462653,-0.885248,0.029742,0.066504,0.036844,-23.376760,-10.838205,-36.482330,,,,,,,
1504280474.703409,-0.055750,0.479922,-2.802766,-0.085827,-0.059047,0.246511,-0.049426,-0.461710,-0.885653,0.033634,0.058893,0.039782,-23.376760,-10.838205,-36.482330,,,,,,,
1504280474.713419,-0.056722,0.478202,-2.800934,-0.062571,-0.112459,0.200742,-0.050332,-0.460183,-0.886396,0.034509,0.047219,0.039365,-23.452291,-10.538843,-36.334747,,,,,,,
1504280474.723429,-0.059042,0.477560,-2.799022,-0.053121,-0.154058,0.164540,-0.052406,-0.459614,-0.886571,0.036583,0.046650,0.039541,-23.452291,-10.538843,-36.334747,,,,,,,
1504280474.733438,-0.061434,0.476864,-2.797459,-0.064840,-0.169915,0.135728,-0.054546,-0.458995,-0.886763,0.033428,0.037166,0.038023,-23.452826,-10.463388,-36.560303,,,,,,,
1504280474.743448,-0.063592,0.475977,-2.796238,-0.088039,-0.153710,0.106839,-0.056485,-0.458207,-0.887049,0.026227,0.026825,0.032633,-23.452826,-10.463388,-36.560303,,,,,,,
1504280474.753458,-0.064554,0.474794,-2.795641,-0.099217,-0.101367,0.077905,-0.057374,-0.457155,-0.887534,0.018998,0.017763,0.025245,-23.452490,-10.463846,-36.335297,,,,,,,
1504280474.763468,-0.065137,0.473648,-2.795137,-0.115401,-0.011687,0.043562,-0.057925,-0.456136,-0.888023,0.013400,0.012959,0.024315,-23.452490,-10.463846,-36.335297,,,,,,,
1504280474.773477,-0.064652,0.472275,-2.795001,-0.142311,0.074877,0.015610,-0.057535,-0.454914,-0.888675,0.008280,0.011417,0.030093,-23.602560,-10.389673,-36.261261,,,,,,,
1504280474.783487,-0.063357,0.470645,-2.795106,-0.169453,0.139054,-0.001629,-0.056431,-0.453461,-0.889488,0.011448,0.010666,0.031868,-23.602560,-10.389673,-36.261261,,,,,,,
1504280474.793497,-0.060918,0.469046,-2.795666,-0.186223,0.169050,-0.013456,-0.054306,-0.452036,-0.890345,0.017944,0.007059,0.030695,-23.528234,-10.164179,-36.337738,,,,,,,
1504280474.803507,-0.059161,0.467129,-2.795940,-0.192711,0.159511,-0.011316,-0.052792,-0.450325,-0.891303,0.024105,0.006416,0.034674,-23.528234,-10.164179,-36.337738,,,,,,,
1504280474.813517,-0.057751,0.465282,-2.796073,-0.179192,0.124221,0.002646,-0.051583,-0.448675,-0.892205,0.034386,0.008703,0.038888,-23.229025,-9.937525,-36.488708,,,,,,,
1504280474.823526,-0.056788,0.463788,-2.796073,-0.136837,0.088699,0.010254,-0.050762,-0.447339,-0.892923,0.042262,0.009061,0.038476,-23.229025,-9.937525,-36.488708,,,,,,,
1504280474.833536,-0.054600,0.463209,-2.796778,-0.084901,0.042476,0.006147,-0.048822,-0.446821,-0.893290,0.044657,0.009184,0.043620,-23.228918,-9.937677,-36.413696,,,,,,,
1504280474.843546,-0.054533,0.462677,-2.796901,-0.045769,-0.013237,-0.013968,-0.048775,-0.446345,-0.893531,0.052422,0.009013,0.053962,-23.228918,-9.937677,-36.413696,,,,,,,
1504280474.853556,-0.054984,0.462527,-2.797257,-0.007745,-0.075332,-0.036208,-0.049182,-0.446211,-0.893575,0.056841,0.010877,0.052526,-23.079748,-9.562159,-36.341125,,,,,,,
1504280474.863565,-0.055864,0.462739,-2.797767,0.027181,-0.119294,-0.049946,-0.049963,-0.446401,-0.893437,0.061437,0.008535,0.043919,-23.079748,-9.562159,-36.341125,,,,,,,
1504280474.873575,-0.054810,0.463818,-2.799291,0.049486,-0.135431,-0.054161,-0.048995,-0.447366,-0.893008,0.057891,0.006448,0.046145,-23.229513,-9.787378,-36.564819,,,,,,,
1504280474.883585,-0.055848,0.464382,-2.799786,0.053822,-0.121623,-0.045638,-0.049908,-0.447870,-0.892705,0.055432,0.003900,0.050099,-23.229513,-9.787378,-36.564819,,,,,,,
1504280474.893595,-0.055131,0.465633,-2.800895,0.043365,-0.091688,-0.038246,-0.049237,-0.448989,-0.892180,0.043103,0.001159,0.047911,-23.454748,-9.563837,-36.342041,,,,,,,
1504280474.903604,-0.054579,0.466779,-2.801722,0.030723,-0.067069,-0.028711,-0.048716,-0.450012,-0.891693,0.033015,-0.005432,0.038467,-23.454748,-9.563837,-36.342041,,,,,,,
1504280474.913584,-0.054031,0.468062,-2.802491,0.024431,-0.057409,-0.031947,-0.048196,-0.451158,-0.891142,0.029565,-0.015334,0.035688,-23.003729,-10.011667,-36.412567,,,,,,,
1504280474.923593,-0.053538,0.469531,-2.803349,0.018077,-0.062657,-0.045830,-0.047721,-0.452468,-0.890503,0.027152,-0.025468,0.034546,-23.003729,-10.011667,-36.412567,,,,,,,
1504280474.933603,-0.054072,0.469724,-2.803954,0.014742,-0.086062,-0.056468,-0.048192,-0.452640,-0.890390,0.033010,-0.032650,0.030862,-23.228872,-9.862970,-36.264282,,,,,,,
1504280474.943613,-0.054819,0.469840,-2.804653,0.006028,-0.113687,-0.064974,-0.048854,-0.452744,-0.890301,0.036785,-0.035171,0.026791,-23.228872,-9.862970,-36.264282,,,,,,,
1504280474.953623,-0.055763,0.469900,-2.805409,0.000562,-0.132818,-0.069219,-0.049693,-0.452797,-0.890228,0.036449,-0.037972,0.021194,-22.928762,-9.861780,-36.188507,,,,,,,
1504280474.963632,-0.055695,0.471037,-2.806758,0.000492,-0.147713,-0.075604,-0.049604,-0.453810,-0.889717,0.034056,-0.034334,0.008705,-22.928762,-9.861780,-36.188507,,,,,,,
1504280474.973642,-0.056849,0.471185,-2.807593,0.016439,-0.154239,-0.074497,-0.050627,-0.453942,-0.889592,0.029554,-0.033256,-0.002651,-22.703955,-9.785761,-36.188538,,,,,,,
1504280474.983652,-0.058082,0.471662,-2.808375,0.053734,-0.158811,-0.072290,-0.051711,-0.454367,-0.889312,0.023223,-0.032541,-0.009598,-22.703955,-9.785761,-36.188538,,,,,,,
1504280474.993662,-0.059316,0.472635,-2.809106,0.107095,-0.154992,-0.069002,-0.052782,-0.455234,-0.888806,0.019274,-0.034222,-0.014468,-23.153997,-9.862497,-36.339050,,,,,,,
1504280475.003672,-0.059959,0.474780,-2.809961,0.167967,-0.143773,-0.060380,-0.053295,-0.457142,-0.887795,0.015850,-0.031169,-0.023170,-23.153997,-9.862497,-36.339050,,,,,,,
1504280475.013681,-0.061086,0.476903,-2.810358,0.220300,-0.127171,-0.044308,-0.054236,-0.459030,-0.886764,0.012946,-0.028885,-0.025559,-22.928656,-9.861933,-36.113525,,,,,,,
1504280475.023691,-0.062041,0.479265,-2.810598,0.235404,-0.099600,-0.033656,-0.055016,-0.461127,-0.885627,0.011559,-0.031854,-0.024682,-22.928656,-9.861933,-36.113525,,,,,,,
1504280475.033701,-0.062770,0.481514,-2.810784,0.216374,-0.077067,-0.032661,-0.055596,-0.463122,-0.884549,0.009621,-0.032362,-0.029834,-22.928091,-10.086924,-36.111847,,,,,,,
1504280475.043711,-0.062939,0.483918,-2.811327,0.175978,-0.070317,-0.049824,-0.055676,-0.465251,-0.883426,0.009747,-0.037633,-0.039883,-22.928091,-10.086924,-36.111847,,,,,,,
1504280475.053720,-0.063359,0.485430,-2.811966,0.137638,-0.074243,-0.070164,-0.056002,-0.466589,-0.882699,0.012682,-0.039759,-0.049292,-23.152380,-10.238382,-35.886230,,,,,,,
1504280475.063730,-0.063870,0.486660,-2.812812,0.111917,-0.098523,-0.086177,-0.056416,-0.467676,-0.882098,0.016545,-0.041632,-0.061964,-23.152380,-10.238382,-35.886230,,,,,,,
1504280475.073740,-0.064625,0.487709,-2.813895,0.092539,-0.133506,-0.107497,-0.057051,-0.468603,-0.881565,0.017927,-0.042643,-0.067517,-23.076880,-10.612452,-36.183258,,,,,,,
1504280475.083750,-0.064629,0.488602,-2.815622,0.088220,-0.151556,-0.126691,-0.057027,-0.469392,-0.881146,0.022329,-0.038603,-0.080386,-23.076880,-10.612452,-36.183258,,,,,,,
1504280475.093759,-0.065353,0.489639,-2.817131,0.095884,-0.137749,-0.143781,-0.057633,-0.470308,-0.880619,0.024414,-0.032622,-0.105542,-23.226995,-10.388727,-35.885284,,,,,,,
1504280475.103769,-0.065693,0.490566,-2.818891,0.075961,-0.108789,-0.167349,-0.057904,-0.471126,-0.880164,0.018384,-0.021688,-0.116510,-23.226995,-10.388727,-35.885284,,,,,,,
1504280475.113779,-0.065508,0.491166,-2.820921,0.040133,-0.064784,-0.186702,-0.057723,-0.471654,-0.879892,0.009749,-0.004237,-0.128088,-23.226690,-10.463877,-35.809723,,,,,,,
1504280475.123789,-0.064734,0.491536,-2.823097,0.020323,-0.012397,-0.195368,-0.057030,-0.471981,-0.879762,0.000298,0.013500,-0.157545,-23.226690,-10.463877,-35.809723,,,,,,,
1504280475.133799,-0.063699,0.491780,-2.825302,0.007626,0.001559,-0.194347,-0.056112,-0.472196,-0.879706,-0.012095,0.027219,-0.162393,-23.150869,-10.838388,-35.881744,,,,,,,
1504280475.143808,-0.062826,0.491953,-2.827434,0.004190,-0.021866,-0.184705,-0.055339,-0.472348,-0.879673,-0.019658,0.040540,-0.146892,-23.150869,-10.838388,-35.881744,,,,,,,
1504280475.153818,-0.062429,0.492117,-2.829413,0.006977,-0.065592,-0.171814,-0.054985,-0.472493,-0.879617,-0.024910,0.057256,-0.146643,-22.925863,-10.837381,-35.881165,,,,,,,
1504280475.163797,-0.062544,0.492317,-2.831238,0.010852,-0.106131,-0.157860,-0.055080,-0.472669,-0.879517,-0.033406,0.080228,-0.144393,-22.925863,-10.837381,-35.881165,,,,,,,
1504280475.173807,-0.064177,0.488182,-2.832391,0.019031,-0.135002,-0.148185,-0.056642,-0.469021,-0.881369,-0.041152,0.091229,-0.132685,-22.925451,-10.912683,-35.730621,,,,,,,
1504280475.183817,-0.064785,0.488568,-2.834033,0.033981,-0.134058,-0.149228,-0.057166,-0.469362,-0.881153,-0.053735,0.099901,-0.125545,-22.925451,-10.912683,-35.730621,,,,,,,
1504280475.193827,-0.064995,0.489221,-2.835868,0.061094,-0.093764,-0.172735,-0.057330,-0.469938,-0.880836,-0.060696,0.102629,-0.112832,-23.074881,-11.138361,-35.729309,,,,,,,
1504280475.203836,-0.064438,0.490177,-2.838053,0.088435,-0.032148,-0.208020,-0.056811,-0.470782,-0.880418,-0.058958,0.105594,-0.090514,-23.074881,-11.138361,-35.729309,,,,,,,
1504280475.213846,-0.064649,0.487258,-2.839812,0.086800,0.027533,-0.226268,-0.057086,-0.468205,-0.881774,-0.045453,0.102498,-0.060777,-22.923727,-11.512980,-35.576080,,,,,,,
1504280475.223856,-0.062966,0.487960,-2.842276,0.044330,0.058776,-0.217858,-0.055581,-0.468825,-0.881541,-0.030219,0.095686,-0.038442,-22.923727,-11.512980,-35.576080,,,,,,,
1504280475.233866,-0.061271,0.487999,-2.844560,-0.026177,0.061465,-0.195569,-0.054085,-0.468860,-0.881615,-0.019065,0.086551,-0.030876,-22.475012,-11.135508,-35.802795,,,,,,,
1504280475.243875,-0.059789,0.487312,-2.846652,-0.096828,0.044976,-0.175382,-0.052798,-0.468253,-0.882016,-0.016172,0.077994,-0.030063,-22.475012,-11.135508,-35.802795,,,,,,,
1504280475.253885,-0.059020,0.483287,-2.848404,-0.151484,0.027290,-0.164770,-0.052230,-0.464692,-0.883930,-0.015305,0.074357,-0.026607,-22.399633,-11.060923,-35.428192,,,,,,,
1504280475.263895,-0.057965,0.481662,-2.850395,-0.178296,0.007269,-0.169051,-0.051342,-0.463253,-0.884738,-0.013752,0.078777,-0.019941,-22.399633,-11.060923,-35.428192,,,,,,,
1504280475.273905,-0.057055,0.479941,-2.852550,-0.182654,-0.013991,-0.185032,-0.050582,-0.461727,-0.885579,-0.017396,0.086254,-0.010585,-22.474783,-11.135813,-35.652802,,,,,,,
1504280475.283914,-0.056385,0.478345,-2.854796,-0.164713,-0.041838,-0.190289,-0.050029,-0.460310,-0.886347,-0.021015,0.095076,-0.004659,-22.474783,-11.135813,-35.652802,,,,,,,
1504280475.293924,-0.056877,0.473825,-2.856529,-0.121177,-0.056074,-0.182713,-0.050583,-0.456294,-0.888390,-0.024826,0.104838,0.000527,-22.249823,-11.209497,-35.801697,,,,,,,
1504280475.303934,-0.056451,0.473132,-2.858480,-0.063538,-0.041649,-0.164493,-0.050222,-0.455676,-0.888728,-0.035471,0.115680,0.008021,-22.249823,-11.209497,-35.801697,,,,,,,
1504280475.313944,-0.055891,0.473026,-2.860092,-0.004746,-0.009131,-0.134561,-0.049728,-0.455582,-0.888804,-0.044891,0.124664,0.015559,-22.475760,-10.835505,-35.805054,,,,,,,
1504280475.323954,-0.055277,0.473292,-2.861248,0.025098,0.012958,-0.092919,-0.049176,-0.455819,-0.888713,-0.048374,0.129159,0.027034,-22.475760,-10.835505,-35.805054,,,,,,,
1504280475.333963,-0.056779,0.470166,-2.861108,-0.005053,0.006748,-0.058796,-0.050591,-0.453034,-0.890057,-0.045143,0.118363,0.043148,-22.400351,-10.910471,-35.654327,,,,,,,
1504280475.343973,-0.056658,0.469642,-2.861629,-0.071496,-0.017234,-0.038588,-0.050497,-0.452567,-0.890299,-0.038920,0.105231,0.044367,-22.400351,-10.910471,-35.654327,,,,,,,
1504280475.353983,-0.056799,0.468522,-2.862044,-0.126107,-0.035975,-0.029043,-0.050651,-0.451568,-0.890798,-0.027687,0.092224,0.030202,-22.100378,-10.983820,-35.803009,,,,,,,
1504280475.363993,-0.056971,0.467118,-2.862436,-0.145296,-0.032623,-0.026947,-0.050840,-0.450315,-0.891421,-0.022463,0.080777,0.027484,-22.100378,-10.983820,-35.803009,,,,,,,
1504280475.374002,-0.057791,0.464006,-2.862418,-0.131316,-0.010380,-0.019487,-0.051652,-0.447534,-0.892774,-0.017623,0.071649,0.038312,-22.100195,-10.834574,-35.429138,,,,,,,
1504280475.384012,-0.057644,0.462888,-2.862625,-0.105597,0.009645,-0.009871,-0.051549,-0.446534,-0.893281,-0.017726,0.065476,0.052201,-22.100195,-10.834574,-35.429138,,,,,,,
1504280475.394022,-0.057437,0.461937,-2.862743,-0.093837,0.015936,-0.004525,-0.051389,-0.445683,-0.893715,-0.021365,0.059193,0.062980,-22.025915,-10.683786,-35.655090,,,,,,,
1504280475.404032,-0.057334,0.460895,-2.862866,-0.109949,0.001152,-0.006662,-0.051323,-0.444750,-0.894183,-0.022575,0.051363,0.063739,-22.025915,-10.683786,-35.655090,,,,,,,
1504280475.414041,-0.058310,0.459046,-2.862700,-0.141018,-0.020970,-0.018414,-0.052244,-0.443093,-0.894952,-0.019442,0.041879,0.056085,-21.876028,-10.682962,-35.729706,,,,,,,
1504280475.424021,-0.058408,0.457439,-2.863190,-0.169813,-0.033497,-0.040858,-0.052373,-0.441652,-0.895657,-0.018473,0.032274,0.045239,-21.876028,-10.682962,-35.729706,,,,,,,
1504280475.434030,-0.058447,0.455623,-2.863872,-0.187897,-0.033336,-0.051563,-0.052455,-0.440022,-0.896454,-0.016500,0.023380,0.040131,-21.876104,-10.608103,-35.655273,,,,,,,
1504280475.444040,-0.058520,0.453807,-2.864453,-0.180478,-0.030216,-0.036612,-0.052567,-0.438390,-0.897246,-0.016936,0.023916,0.035521,-21.876104,-10.608103,-35.655273,,,,,,,
1504280475.454050,-0.059551,0.452028,-2.864314,-0.144152,-0.008177,-0.012034,-0.053538,-0.436790,-0.897969,-0.024373,0.019966,0.030613,-21.800192,-10.833216,-35.428406,,,,,,,
1504280475.464060,-0.059385,0.450928,-2.864253,-0.096000,0.028690,0.018939,-0.053418,-0.435801,-0.898457,-0.031192,0.013071,0.035465,-21.800192,-10.833216,-35.428406,,,,,,,
1504280475.474069,-0.059028,0.450346,-2.863860,-0.043599,0.059135,0.043527,-0.053111,-0.435277,-0.898728,-0.036458,0.008504,0.045289,-21.651815,-10.456644,-35.880859,,,,,,,
1504280475.484079,-0.058594,0.450182,-2.863344,-0.006224,0.065218,0.046783,-0.052726,-0.435129,-0.898823,-0.044626,0.003046,0.054875,-21.651815,-10.456644,-35.880859,,,,,,,
1504280475.494089,-0.060031,0.451164,-2.862158,-0.002037,0.044927,0.034024,-0.053992,-0.436014,-0.898319,-0.040780,-0.002326,0.062885,-21.651022,-10.681955,-35.729156,,,,,,,
1504280475.504099,-0.059955,0.451049,-2.861923,-0.011857,0.007729,0.018061,-0.053927,-0.435910,-0.898373,-0.035505,-0.010486,0.063595,-21.651022,-10.681955,-35.729156,,,,,,,
1504280475.514109,-0.060143,0.450818,-2.861838,-0.026973,-0.021971,0.006346,-0.054102,-0.435702,-0.898464,-0.028601,-0.021406,0.060360,-21.577353,-10.156610,-35.732910,,,,,,,
1504280475.524118,-0.060440,0.450311,-2.861926,-0.061149,-0.035527,-0.008633,-0.054382,-0.435245,-0.898668,-0.026505,-0.032833,0.065569,-21.652014,-10.381647,-35.881409,,,,,,,
1504280475.534128,-0.061950,0.451688,-2.861619,-0.098355,-0.029898,-0.019378,-0.055702,-0.436485,-0.897986,-0.028466,-0.039025,0.068472,-21.652014,-10.381647,-35.881409,,,,,,,
1504280475.544138,-0.061847,0.450473,-2.861890,-0.130053,0.010853,-0.016302,-0.055642,-0.435391,-0.898520,-0.029350,-0.046222,0.053397,-21.652014,-10.381647,-35.881409,,,,,,,
1504280475.554148,-0.061232,0.449077,-2.862097,-0.142455,0.066357,-0.007882,-0.055126,-0.434134,-0.899160,-0.038563,-0.050562,0.045736,-21.351934,-10.455149,-35.955078,,,,,,,
1504280475.564157,-0.060083,0.447691,-2.862231,-0.134553,0.123829,-0.002633,-0.054129,-0.432885,-0.899822,-0.051507,-0.051261,0.044888,-21.351934,-10.455149,-35.955078,,,,,,,
1504280475.574167,-0.060896,0.448527,-2.861270,-0.100143,0.156544,0.002715,-0.054838,-0.433639,-0.899417,-0.060167,-0.046235,0.038897,-21.577078,-10.306467,-35.806763,,,,,,,
1504280475.584177,-0.059281,0.447868,-2.861313,-0.053192,0.154031,-0.002536,-0.053403,-0.433045,-0.899789,-0.066806,-0.040146,0.040353,-21.577078,-10.306467,-35.806763,,,,,,,
1504280475.594187,-0.057959,0.447682,-2.861441,-0.009712,0.114257,-0.013065,-0.052218,-0.432877,-0.899939,-0.067915,-0.034057,0.041755,-21.577917,-10.155863,-36.107941,,,,,,,
1504280475.604196,-0.057163,0.447912,-2.861630,0.031467,0.056382,-0.019296,-0.051496,-0.433084,-0.899881,-0.059756,-0.027975,0.036569,-21.577917,-10.155863,-36.107941,,,,,,,
1504280475.614206,-0.058860,0.449857,-2.860947,0.063058,0.003878,-0.014871,-0.052974,-0.434837,-0.898950,-0.048482,-0.030541,0.030114,-21.127874,-10.079142,-35.957336,,,,,,,
1504280475.624222,-0.059077,0.450698,-2.860890,0.091540,-0.024083,0.005508,-0.053147,-0.435594,-0.898573,-0.044082,-0.039428,0.022658,-21.127874,-10.079142,-35.957336,,,,,,,
1504280475.634232,-0.059468,0.451834,-2.860492,0.123443,-0.017984,0.036507,-0.053468,-0.436616,-0.898058,-0.043150,-0.051055,0.017381,-21.053183,-10.003656,-36.032745,,,,,,,
1504280475.644242,-0.059931,0.453347,-2.859764,0.164943,-0.015157,0.063259,-0.053845,-0.437977,-0.897372,-0.047961,-0.063701,0.017337,-21.053183,-10.003656,-36.032745,,,,,,,
1504280475.654251,-0.062579,0.457606,-2.857865,0.214941,-0.025207,0.084718,-0.056104,-0.441802,-0.895356,-0.051730,-0.067124,0.016908,-20.678106,-10.076822,-36.106293,,,,,,,
1504280475.664261,-0.063596,0.460076,-2.856653,0.266914,-0.057613,0.094472,-0.056944,-0.444016,-0.894207,-0.051668,-0.065139,0.010800,-20.678106,-10.076822,-36.106293,,,,,,,
1504280475.674271,-0.065051,0.462977,-2.855379,0.304980,-0.100550,0.094614,-0.058162,-0.446613,-0.892835,-0.045979,-0.064556,0.004331,-20.827124,-10.377787,-35.954346,,,,,,,
1504280475.684250,-0.066964,0.466182,-2.854014,0.332374,-0.139146,0.102201,-0.059774,-0.449479,-0.891289,-0.033793,-0.066985,-0.008354,-21.125875,-10.829294,-35.876740,,,,,,,
1504280475.694260,-0.069873,0.471106,-2.852160,0.342986,-0.142452,0.113968,-0.062211,-0.453872,-0.888893,-0.023528,-0.069627,-0.024239,-21.125875,-10.829294,-35.876740,,,,,,,
1504280475.704270,-0.071836,0.474444,-2.850430,0.342119,-0.104105,0.135247,-0.063847,-0.456844,-0.887253,-0.023205,-0.072926,-0.034668,-21.125875,-10.829294,-35.876740,,,,,,,
1504280475.714279,-0.073305,0.477638,-2.848426,0.325455,-0.037926,0.159652,-0.065043,-0.459683,-0.885698,-0.026693,-0.074634,-0.038420,-20.975576,-10.903772,-35.800781,,,,,,,
1504280475.724289,-0.074184,0.480526,-2.846206,0.294960,0.030502,0.179759,-0.065722,-0.462246,-0.884313,-0.031995,-0.075489,-0.037242,-20.975576,-10.903772,-35.800781,,,,,,,
1504280475.734299,-0.075614,0.484497,-2.843328,0.279302,0.082813,0.198856,-0.066848,-0.465764,-0.882381,-0.033921,-0.069881,-0.040364,-21.049368,-11.204706,-35.498749,,,,,,,
1504280475.744309,-0.075732,0.487044,-2.840672,0.266700,0.121257,0.220114,-0.066862,-0.468015,-0.881187,-0.028567,-0.063250,-0.042488,-21.049368,-11.204706,-35.498749,,,,,,,
1504280475.754318,-0.075664,0.489326,-2.837806,0.239056,0.145972,0.240303,-0.066721,-0.470031,-0.880125,-0.024191,-0.054795,-0.033022,-21.124304,-11.279886,-35.573334,,,,,,,
1504280475.764328,-0.075514,0.491293,-2.834612,0.210288,0.172813,0.275431,-0.066519,-0.471766,-0.879211,-0.015787,-0.044363,-0.036606,-21.124304,-11.279886,-35.573334,,,,,,,
1504280475.774338,-0.075356,0.493295,-2.830885,0.185808,0.208130,0.321224,-0.066309,-0.473531,-0.878278,-0.007330,-0.037394,-0.049716,-21.124792,-11.129740,-35.649475,,,,,,,
1504280475.784348,-0.075205,0.494646,-2.826707,0.154654,0.211534,0.369197,-0.066128,-0.474720,-0.877649,-0.006229,-0.034237,-0.045096,-21.124792,-11.129740,-35.649475,,,,,,,
1504280475.794357,-0.075601,0.495725,-2.821989,0.135966,0.173275,0.418333,-0.066437,-0.475670,-0.877111,0.000367,-0.032387,-0.049509,-20.973166,-11.504969,-35.196289,,,,,,,
1504280475.804367,-0.076825,0.496808,-2.816741,0.149131,0.112382,0.462227,-0.067471,-0.476621,-0.876516,0.008404,-0.030382,-0.069163,-20.973166,-11.504969,-35.196289,,,,,,,
1504280475.814377,-0.078362,0.497980,-2.811361,0.184791,0.049201,0.483745,-0.068775,-0.477652,-0.875853,0.019412,-0.026926,-0.078035,-20.673101,-11.578470,-35.269989,,,,,,,
1504280475.824387,-0.080901,0.499799,-2.805822,0.230363,-0.002301,0.462567,-0.070928,-0.479249,-0.874808,0.023519,-0.017776,-0.079980,-20.673101,-11.578470,-35.269989,,,,,,,
1504280475.834397,-0.083600,0.501950,-2.800696,0.253853,-0.028022,0.417822,-0.073202,-0.481136,-0.873584,0.041723,-0.009648,-0.079953,-20.673391,-11.503321,-35.345581,,,,,,,
1504280475.844406,-0.086147,0.503941,-2.796276,0.216699,-0.045762,0.351610,-0.075345,-0.482881,-0.872439,0.054425,-0.011931,-0.082166,-20.823706,-11.428843,-35.421478,,,,,,,
1504280475.854416,-0.087171,0.504605,-2.793393,0.119501,-0.094965,0.291747,-0.076210,-0.483462,-0.872042,0.051918,-0.016233,-0.082640,-20.823706,-11.428843,-35.421478,,,,,,,
1504280475.864426,-0.090101,0.504615,-2.790320,-0.006791,-0.162093,0.262826,-0.078764,-0.483471,-0.871810,0.050688,-0.013539,-0.097154,-20.823706,-11.428843,-35.421478,,,,,,,
1504280475.874436,-0.093556,0.503490,-2.787429,-0.114987,-0.216613,0.262735,-0.081826,-0.482485,-0.872074,0.039147,0.000949,-0.116437,-20.748358,-11.428949,-35.196289,,,,,,,
1504280475.884445,-0.097201,0.501517,-2.784539,-0.187627,-0.222417,0.271159,-0.085097,-0.480756,-0.872715,0.011779,0.028333,-0.125225,-21.048742,-11.280298,-35.198151,,,,,,,
1504280475.894455,-0.100403,0.496287,-2.781729,-0.219136,-0.159281,0.262460,-0.088142,-0.476164,-0.874928,-0.011620,0.052184,-0.122005,-21.048742,-11.280298,-35.198151,,,,,,,
1504280475.904465,-0.102244,0.493970,-2.779114,-0.198777,-0.023038,0.249446,-0.089864,-0.474125,-0.875859,-0.031657,0.080921,-0.121043,-20.899191,-11.054773,-35.124481,,,,,,,
1504280475.914475,-0.102575,0.492157,-2.776576,-0.143158,0.120372,0.237548,-0.090243,-0.472528,-0.876683,-0.040952,0.111505,-0.112117,-20.899191,-11.054773,-35.124481,,,,,,,
1504280475.924484,-0.101941,0.490918,-2.774053,-0.087064,0.194507,0.233245,-0.089746,-0.471436,-0.877322,-0.047690,0.134873,-0.088300,-21.049948,-10.979700,-35.500427,,,,,,,
1504280475.934494,-0.101891,0.484683,-2.771179,-0.047809,0.178187,0.233356,-0.090000,-0.465927,-0.880234,-0.024502,0.136429,-0.072220,-21.049948,-10.979700,-35.500427,,,,,,,
1504280475.944473,-0.101922,0.484111,-2.768809,-0.033539,0.076868,0.204740,-0.090054,-0.465422,-0.880496,0.036999,0.138655,-0.078550,-21.126074,-10.530039,-35.503998,,,,,,,
1504280475.954483,-0.103205,0.483509,-2.767041,-0.049528,-0.091305,0.146301,-0.091213,-0.464888,-0.880658,0.038158,0.138122,-0.078387,-21.126074,-10.530039,-35.503998,,,,,,,
1504280475.964493,-0.105979,0.482681,-2.765960,-0.080541,-0.268946,0.089988,-0.093696,-0.464156,-0.880784,0.073142,0.145720,-0.084380,-21.125280,-10.755335,-35.352295,,,,,,,
1504280475.974503,-0.105904,0.475767,-2.767138,-0.114358,-0.368756,0.058079,-0.093967,-0.458021,-0.883961,0.093524,0.144956,-0.091579,-21.125280,-10.755335,-35.352295,,,,,,,
1504280475.984513,-0.109774,0.474289,-2.766752,-0.152651,-0.358842,0.050523,-0.097461,-0.456706,-0.884263,0.094821,0.143047,-0.087844,-21.350424,-10.606653,-35.203979,,,,,,,
1504280475.994522,-0.112762,0.472509,-2.766249,-0.176352,-0.241452,0.070556,-0.100193,-0.455122,-0.884774,0.080784,0.146696,-0.080390,-21.350424,-10.606653,-35.203979,,,,,,,
1504280476.004532,-0.114375,0.470577,-2.765327,-0.182737,-0.077345,0.116154,-0.101721,-0.453401,-0.885483,0.060263,0.152147,-0.079956,-21.500158,-10.532923,-34.904907,,,,,,,
1504280476.014542,-0.114810,0.468645,-2.763700,-0.170212,0.063142,0.183174,-0.102206,-0.451678,-0.886307,0.044574,0.153277,-0.065902,-21.500158,-10.532923,-34.904907,,,,,,,
1504280476.024552,-0.114632,0.466951,-2.761316,-0.132553,0.140557,0.243945,-0.102136,-0.450166,-0.887084,0.035775,0.153734,-0.054490,-21.501028,-10.232767,-34.982178,,,,,,,
1504280476.034561,-0.114397,0.465701,-2.758538,-0.082467,0.144388,0.262171,-0.101992,-0.449049,-0.887667,0.032961,0.154051,-0.047010,-21.501028,-10.232767,-34.982178,,,,,,,
1504280476.044571,-0.114524,0.465015,-2.755886,-0.027290,0.088553,0.233545,-0.102139,-0.448436,-0.887960,0.041211,0.151760,-0.032969,-21.426489,-10.231836,-35.281982,,,,,,,
1504280476.054581,-0.115194,0.464864,-2.753729,0.017156,0.008324,0.178258,-0.102742,-0.448302,-0.887958,0.059193,0.148146,-0.016247,-21.426489,-10.231836,-35.281982,,,,,,,
1504280476.064591,-0.116395,0.465130,-2.752164,0.050964,-0.068619,0.121880,-0.103794,-0.448539,-0.887716,0.068119,0.147407,-0.005183,-21.426214,-10.381678,-35.355865,,,,,,,
1504280476.074600,-0.115028,0.461017,-2.752332,0.076432,-0.100724,0.081417,-0.102792,-0.444859,-0.889682,0.065393,0.138692,0.003726,-21.426214,-10.381678,-35.355865,,,,,,,
