timestamp(unix),attitude_roll(radians),attitude_pitch(radians),attitude_yaw(radians),rotation_rate_x(radians/s),rotation_rate_y(radians/s),rotation_rate_z(radians/s),gravity_x(G),gravity_y(G),gravity_z(G),user_acc_x(G),user_acc_y(G),user_acc_z(G),magnetic_field_x(microteslas),magnetic_field_y(microteslas),magnetic_field_z(microteslas),latitude(degree),longitude(degree),altitude(meter),speed(m/s),course(degree),timestamp(unix),User Mark
1504281062.478249,0.080249,0.058945,1.916786,0.317700,-0.034923,-0.114415,0.080023,-0.058911,-0.995051,-0.033515,-0.419284,0.126185,-18.952978,-12.909800,-40.730713,,,,,,,
1504281062.488231,0.079607,0.061451,1.915433,0.236199,-0.085403,-0.112332,0.079373,-0.061412,-0.994952,-0.049664,-0.398564,0.123080,-18.952978,-12.909800,-40.730713,,,,,,,
1504281062.498241,0.078270,0.062923,1.914283,0.127780,-0.159116,-0.098514,0.078036,-0.062881,-0.994966,-0.054720,-0.396439,0.100556,-18.951727,-13.359949,-40.652313,,,,,,,
1504281062.508251,0.076261,0.063382,1.913465,0.028982,-0.221203,-0.069756,0.076034,-0.063340,-0.995091,-0.054473,-0.410262,0.083501,-18.951727,-13.359949,-40.652313,,,,,,,
1504281062.518261,0.073593,0.063207,1.913024,-0.026101,-0.283655,-0.035584,0.073380,-0.063165,-0.995302,-0.048966,-0.411887,0.075670,-18.951468,-13.285547,-40.352875,,,,,,,
1504281062.528240,0.070496,0.062693,1.913003,-0.057501,-0.316471,0.003913,0.070299,-0.062652,-0.995556,-0.042269,-0.397782,0.090726,-18.951468,-13.285547,-40.352875,,,,,,,
1504281062.538250,0.067332,0.062024,1.913309,-0.069299,-0.306812,0.031628,0.067151,-0.061984,-0.995816,-0.039854,-0.380139,0.112667,-19.101095,-13.436228,-40.352142,,,,,,,
1504281062.548259,0.065008,0.061591,1.913697,-0.038629,-0.202644,0.038970,0.064839,-0.061552,-0.995996,-0.036992,-0.374956,0.128015,-19.101095,-13.436228,-40.352142,,,,,,,
1504281062.558269,0.064016,0.061610,1.914060,0.015936,-0.054967,0.031332,0.063851,-0.061571,-0.996058,-0.042779,-0.363753,0.167979,-19.251165,-13.362055,-40.278046,,,,,,,
1504281062.568279,0.064662,0.062352,1.914138,0.094156,0.102128,0.002371,0.064491,-0.062312,-0.995971,-0.062584,-0.368459,0.188705,-19.251165,-13.362055,-40.278046,,,,,,,
1504281062.578289,0.066733,0.063747,1.913672,0.155186,0.228488,-0.052184,0.066548,-0.063704,-0.995748,-0.058202,-0.376375,0.193944,-19.400488,-13.587870,-40.201752,,,,,,,
1504281062.588298,0.069345,0.065576,1.912491,0.202691,0.252682,-0.125795,0.069140,-0.065529,-0.995452,-0.051654,-0.360619,0.170028,-19.400488,-13.587870,-40.201752,,,,,,,
1504281062.598308,0.071450,0.067932,1.910321,0.268684,0.171256,-0.224806,0.071225,-0.067880,-0.995148,-0.051663,-0.358726,0.114533,-19.776007,-13.514109,-40.428223,,,,,,,
1504281062.608318,0.072324,0.070968,1.907156,0.342634,0.024751,-0.311946,0.072079,-0.070908,-0.994875,-0.045742,-0.374419,0.088976,-19.776007,-13.514109,-40.428223,,,,,,,
1504281062.618328,0.071792,0.074508,1.903463,0.388669,-0.110923,-0.346851,0.071531,-0.074439,-0.994657,-0.040037,-0.390680,0.096418,-19.175406,-13.885965,-40.648926,,,,,,,
1504281062.628338,0.070258,0.078284,1.899774,0.406040,-0.199523,-0.334924,0.069986,-0.078204,-0.994478,-0.060083,-0.390821,0.098421,-19.323751,-14.412088,-40.420349,,,,,,,
1504281062.638347,0.068344,0.082095,1.896407,0.400326,-0.222959,-0.296466,0.068061,-0.082002,-0.994305,-0.085075,-0.366362,0.097104,-19.323751,-14.412088,-40.420349,,,,,,,
1504281062.648357,0.066263,0.085815,1.893477,0.385088,-0.236727,-0.258041,0.065971,-0.085709,-0.994134,-0.097999,-0.343993,0.105462,-19.097998,-14.486826,-40.044220,,,,,,,
1504281062.658367,0.063791,0.089146,1.890785,0.335548,-0.286415,-0.245231,0.063495,-0.089028,-0.994003,-0.101947,-0.323784,0.111313,-19.097998,-14.486826,-40.044220,,,,,,,
1504281062.668377,0.060335,0.091826,1.888036,0.265358,-0.401970,-0.262227,0.060044,-0.091697,-0.993975,-0.090287,-0.320108,0.105074,-19.396765,-14.938334,-39.966614,,,,,,,
1504281062.678386,0.055360,0.093680,1.884966,0.179982,-0.565323,-0.305850,0.055089,-0.093543,-0.994090,-0.075124,-0.344033,0.086894,-19.396765,-14.938334,-39.966614,,,,,,,
1504281062.688396,0.049158,0.094652,1.881514,0.095009,-0.677533,-0.348496,0.048918,-0.094510,-0.994321,-0.062971,-0.381015,0.073575,-19.770330,-15.465158,-39.888580,,,,,,,
1504281062.698406,0.042693,0.094931,1.877773,0.029056,-0.669502,-0.375309,0.042488,-0.094788,-0.994590,-0.063225,-0.407821,0.080314,-19.770330,-15.465158,-39.888580,,,,,,,
1504281062.708416,0.037217,0.094751,1.873937,-0.011534,-0.546616,-0.383068,0.037042,-0.094609,-0.994825,-0.067574,-0.414088,0.105726,-20.069677,-15.542109,-39.588776,,,,,,,
1504281062.718425,0.033236,0.094408,1.870083,-0.021026,-0.399485,-0.383344,0.033082,-0.094268,-0.994997,-0.076143,-0.408753,0.141771,-20.069677,-15.542109,-39.588776,,,,,,,
1504281062.728435,0.030347,0.094142,1.866283,-0.012868,-0.307919,-0.374952,0.030208,-0.094003,-0.995113,-0.074596,-0.408591,0.161266,-20.369452,-15.543756,-39.439514,,,,,,,
1504281062.738445,0.027780,0.093921,1.862739,-0.013914,-0.286630,-0.345104,0.027654,-0.093783,-0.995209,-0.065907,-0.421109,0.164062,-20.369452,-15.543756,-39.439514,,,,,,,
1504281062.748455,0.025123,0.093544,1.859455,-0.035477,-0.301392,-0.323767,0.025011,-0.093408,-0.995314,-0.056063,-0.420401,0.154051,-20.594030,-15.620066,-39.289490,,,,,,,
1504281062.758464,0.022111,0.092818,1.856292,-0.076372,-0.339427,-0.314165,0.022014,-0.092685,-0.995452,-0.049220,-0.421155,0.145110,-20.594030,-15.620066,-39.289490,,,,,,,
1504281062.768474,0.018649,0.091619,1.853148,-0.124737,-0.384847,-0.316303,0.018570,-0.091491,-0.995633,-0.037613,-0.442781,0.142728,-20.592886,-16.070078,-39.286102,,,,,,,
1504281062.778484,0.015181,0.089980,1.849888,-0.168259,-0.366358,-0.331355,0.015119,-0.089859,-0.995840,-0.031965,-0.449661,0.151037,-20.592886,-16.070078,-39.286102,,,,,,,
1504281062.788494,0.012432,0.088127,1.846486,-0.179259,-0.281008,-0.342198,0.012383,-0.088013,-0.996042,-0.020272,-0.448593,0.167612,-21.043005,-15.847696,-38.988892,,,,,,,
1504281062.798504,0.010772,0.086514,1.843146,-0.148502,-0.161929,-0.328479,0.010732,-0.086407,-0.996202,-0.011693,-0.450077,0.194215,-21.043005,-15.847696,-38.988892,,,,,,,
1504281062.808513,0.010465,0.085378,1.840168,-0.098511,-0.020661,-0.284878,0.010427,-0.085274,-0.996303,-0.009099,-0.437111,0.216701,-20.892935,-15.921869,-39.062958,,,,,,,
1504281062.818523,0.011225,0.084759,1.837785,-0.047933,0.072630,-0.221978,0.011184,-0.084658,-0.996347,-0.002960,-0.421125,0.231363,-20.892935,-15.921869,-39.062958,,,,,,,
1504281062.828533,0.012421,0.084526,1.836045,-0.015954,0.109595,-0.156876,0.012377,-0.084426,-0.996353,0.013304,-0.418458,0.236679,-20.893347,-15.846567,-39.213531,,,,,,,
1504281062.838543,0.013387,0.084396,1.834879,-0.013309,0.073287,-0.103437,0.013339,-0.084296,-0.996351,0.023908,-0.411996,0.218489,-20.893347,-15.846567,-39.213531,,,,,,,
1504281062.848552,0.013785,0.084019,1.834194,-0.048099,0.020247,-0.058573,0.013736,-0.083920,-0.996378,0.029874,-0.416416,0.198969,-20.667898,-16.070414,-39.286285,,,,,,,
1504281062.858562,0.013615,0.082925,1.833851,-0.132985,-0.036626,-0.029800,0.013568,-0.082830,-0.996471,0.030392,-0.415720,0.183453,-20.667898,-16.070414,-39.286285,,,,,,,
1504281062.868541,0.012459,0.080683,1.833694,-0.259850,-0.149613,-0.017012,0.012418,-0.080595,-0.996670,0.028018,-0.415224,0.172817,-20.519033,-15.619730,-39.289307,,,,,,,
1504281062.878551,0.009509,0.076820,1.833582,-0.431101,-0.350667,-0.016954,0.009481,-0.076744,-0.997006,0.038234,-0.429848,0.149716,-20.519033,-15.619730,-39.289307,,,,,,,
1504281062.888561,0.004553,0.070960,1.833416,-0.634213,-0.535470,-0.020182,0.004541,-0.070900,-0.997473,0.055136,-0.451744,0.115393,-20.670263,-15.170252,-39.368073,,,,,,,
1504281062.898571,0.000054,0.063787,1.832938,-0.722958,-0.448388,-0.056781,0.000054,-0.063744,-0.997966,0.076774,-0.481850,0.080684,-20.670263,-15.170252,-39.368073,,,,,,,
1504281062.908580,-0.003468,0.056615,1.832129,-0.716375,-0.310948,-0.086900,-0.003463,-0.056585,-0.998392,0.081069,-0.543589,0.069925,-21.270971,-15.022501,-39.595673,,,,,,,
1504281062.918590,-0.005454,0.049751,1.831359,-0.669455,-0.170692,-0.071055,-0.005447,-0.049730,-0.998748,0.091797,-0.565764,0.088882,-21.270971,-15.022501,-39.595673,,,,,,,
1504281062.928600,-0.005711,0.043633,1.830557,-0.595317,0.023709,-0.077673,-0.005706,-0.043619,-0.999032,0.065993,-0.470908,0.181466,-21.346884,-14.573145,-39.449249,,,,,,,
1504281062.938610,-0.004195,0.038265,1.829810,-0.518329,0.182907,-0.070349,-0.004192,-0.038255,-0.999259,0.049877,-0.475798,0.151176,-21.346884,-14.573145,-39.449249,,,,,,,
1504281062.948620,-0.001414,0.033540,1.829208,-0.456584,0.309188,-0.054453,-0.001413,-0.033533,-0.999437,0.031229,-0.480001,0.173753,-20.898245,-14.120813,-39.601501,,,,,,,
1504281062.958629,0.002588,0.029420,1.828707,-0.395912,0.428030,-0.049221,0.002587,-0.029416,-0.999564,0.029456,-0.474491,0.159369,-20.898245,-14.120813,-39.601501,,,,,,,
1504281062.968639,0.007519,0.025861,1.828328,-0.341934,0.514952,-0.036472,0.007516,-0.025858,-0.999637,0.022162,-0.467291,0.156559,-20.675238,-13.593912,-40.054871,,,,,,,
1504281062.978649,0.013233,0.022868,1.828148,-0.283850,0.586912,-0.015150,0.013229,-0.022866,-0.999651,0.000442,-0.433189,0.154665,-20.675238,-13.593912,-40.054871,,,,,,,
1504281062.988659,0.019652,0.020415,1.828180,-0.235428,0.651492,0.006168,0.019647,-0.020414,-0.999599,-0.022226,-0.415957,0.153697,-20.226004,-13.516138,-40.429321,,,,,,,
1504281062.998668,0.025904,0.018096,1.828547,-0.237040,0.604584,0.040405,0.025897,-0.018095,-0.999501,-0.027804,-0.393038,0.186146,-20.226004,-13.516138,-40.429321,,,,,,,
1504281063.008678,0.030671,0.015332,1.829293,-0.294105,0.427064,0.073709,0.030662,-0.015331,-0.999412,-0.024330,-0.384327,0.189293,-19.401388,-13.362421,-40.428406,,,,,,,
1504281063.018688,0.033355,0.012111,1.830282,-0.329980,0.221680,0.092154,0.033347,-0.012111,-0.999370,-0.007498,-0.410481,0.134930,-19.401388,-13.362421,-40.428406,,,,,,,
1504281063.028698,0.034584,0.009209,1.831343,-0.273340,0.101863,0.095666,0.034575,-0.009209,-0.999360,0.003007,-0.412391,0.085373,-19.777487,-13.063669,-40.656586,,,,,,,
1504281063.038707,0.035753,0.007404,1.832275,-0.150362,0.129633,0.084089,0.035745,-0.007404,-0.999334,-0.012872,-0.393017,0.085439,-19.777487,-13.063669,-40.656586,,,,,,,
1504281063.048717,0.037469,0.006925,1.833077,-0.016504,0.187145,0.077815,0.037459,-0.006925,-0.999274,-0.034316,-0.371860,0.130103,-19.553427,-12.687647,-40.658875,,,,,,,
1504281063.058727,0.039638,0.007624,1.833969,0.087187,0.224632,0.098209,0.039626,-0.007624,-0.999186,-0.043609,-0.374853,0.137537,-19.553427,-12.687647,-40.658875,,,,,,,
1504281063.068737,0.041594,0.008894,1.835303,0.127060,0.177356,0.157069,0.041581,-0.008894,-0.999096,-0.032914,-0.384950,0.133815,-19.627966,-12.912836,-40.732361,,,,,,,
1504281063.078746,0.042349,0.010325,1.837545,0.136156,0.041848,0.255524,0.042334,-0.010325,-0.999050,-0.020545,-0.405294,0.130169,-19.627966,-12.912836,-40.732361,,,,,,,
1504281063.088756,0.041882,0.011527,1.840648,0.088810,-0.087855,0.342131,0.041867,-0.011526,-0.999057,-0.019040,-0.416910,0.104281,-19.402594,-13.061823,-40.730682,,,,,,,
1504281063.098766,0.039914,0.012105,1.844219,0.021451,-0.229042,0.358274,0.039900,-0.012104,-0.999130,0.001466,-0.405910,0.107422,-19.402594,-13.061823,-40.730682,,,,,,,
1504281063.108776,0.036428,0.011665,1.847391,-0.081884,-0.382636,0.294322,0.036418,-0.011664,-0.999269,0.014440,-0.417291,0.102220,-19.553732,-12.612497,-40.734436,,,,,,,
1504281063.118786,0.031405,0.009947,1.849574,-0.213796,-0.538075,0.181223,0.031399,-0.009947,-0.999457,0.007664,-0.410341,0.108054,-19.553732,-12.612497,-40.734436,,,,,,,
1504281063.128795,0.024852,0.006569,1.850297,-0.383860,-0.689956,0.022153,0.024849,-0.006569,-0.999670,-0.016243,-0.425331,0.109029,-20.078451,-12.764704,-40.809570,,,,,,,
1504281063.138805,0.017161,0.001473,1.849652,-0.546176,-0.785459,-0.102846,0.017160,-0.001473,-0.999852,-0.010034,-0.450034,0.106236,-20.078451,-12.764704,-40.809570,,,,,,,
1504281063.148815,0.009444,-0.004867,1.848411,-0.653571,-0.755776,-0.128702,0.009444,0.004867,-0.999944,-0.004057,-0.460540,0.084950,-20.753469,-12.618189,-40.587402,,,,,,,
1504281063.158825,0.002704,-0.011644,1.847252,-0.675111,-0.641589,-0.119334,0.002704,0.011643,-0.999929,-0.030841,-0.465638,0.094182,-20.753469,-12.618189,-40.587402,,,,,,,
1504281063.168834,-0.002776,-0.018071,1.845821,-0.625942,-0.516221,-0.150425,-0.002775,0.018070,-0.999833,-0.069262,-0.474979,0.122102,-21.355429,-11.796030,-40.520050,,,,,,,
1504281063.178844,-0.007256,-0.023691,1.844201,-0.539787,-0.422082,-0.160048,-0.007254,0.023688,-0.999693,-0.030344,-0.460029,0.139708,-21.355429,-11.796030,-40.520050,,,,,,,
1504281063.188854,-0.011091,-0.028359,1.842568,-0.443318,-0.366400,-0.159979,-0.011087,0.028355,-0.999536,-0.029044,-0.457646,0.131327,-21.731100,-11.572565,-40.597687,,,,,,,
1504281063.198864,-0.014370,-0.032112,1.840779,-0.354190,-0.307439,-0.180209,-0.014362,0.032107,-0.999381,-0.051602,-0.449832,0.116050,-21.731100,-11.572565,-40.597687,,,,,,,
1504281063.208873,-0.016998,-0.034963,1.838727,-0.264945,-0.237817,-0.206862,-0.016987,0.034956,-0.999244,-0.044948,-0.430479,0.088661,-21.806738,-11.273050,-40.525116,,,,,,,
1504281063.218853,-0.019037,-0.036952,1.836502,-0.183351,-0.183064,-0.220694,-0.019023,0.036943,-0.999136,-0.040349,-0.411654,0.065405,-21.806738,-11.273050,-40.525116,,,,,,,
1504281063.228862,-0.020544,-0.038356,1.834317,-0.136003,-0.128050,-0.213237,-0.020527,0.038347,-0.999054,-0.040248,-0.396730,0.047043,-21.881964,-11.273096,-40.675293,,,,,,,
1504281063.238872,-0.021517,-0.039744,1.832364,-0.149621,-0.077886,-0.183462,-0.021499,0.039734,-0.998979,-0.032029,-0.393234,0.028398,-21.881964,-11.273096,-40.675293,,,,,,,
1504281063.248882,-0.021965,-0.041648,1.830745,-0.209123,-0.025218,-0.148433,-0.021944,0.041636,-0.998892,-0.020323,-0.393077,0.016485,-21.881292,-11.273996,-40.225311,,,,,,,
1504281063.258892,-0.021828,-0.044157,1.829544,-0.265427,0.033807,-0.102737,-0.021805,0.044142,-0.998787,-0.012024,-0.397002,-0.002556,-21.881292,-11.273996,-40.225311,,,,,,,
1504281063.268901,-0.021141,-0.047107,1.828845,-0.303717,0.082019,-0.049518,-0.021116,0.047090,-0.998667,-0.001315,-0.405488,-0.004827,-22.031622,-11.274210,-40.450653,,,,,,,
1504281063.278911,-0.020167,-0.050231,1.828696,-0.311303,0.101205,0.004873,-0.020140,0.050209,-0.998536,0.009505,-0.409264,0.007142,-22.031622,-11.274210,-40.450653,,,,,,,
1504281063.288921,-0.019179,-0.053183,1.828970,-0.286984,0.095641,0.040149,-0.019150,0.053158,-0.998402,0.017457,-0.407147,0.011205,-21.807425,-11.047907,-40.601807,,,,,,,
1504281063.298931,-0.018305,-0.055734,1.829429,-0.244368,0.080469,0.051272,-0.018276,0.055705,-0.998280,0.026287,-0.405543,0.016591,-21.807425,-11.047907,-40.601807,,,,,,,
1504281063.308941,-0.017499,-0.057961,1.829764,-0.213353,0.077037,0.031051,-0.017469,0.057929,-0.998168,0.037168,-0.404090,0.028197,-21.433630,-10.745615,-40.903137,,,,,,,
1504281063.318950,-0.016721,-0.059915,1.829807,-0.189722,0.076876,-0.000930,-0.016691,0.059879,-0.998066,0.047101,-0.410083,0.027744,-21.433630,-10.745615,-40.903137,,,,,,,
1504281063.328960,-0.016074,-0.061761,1.829548,-0.183316,0.060867,-0.027576,-0.016043,0.061722,-0.997964,0.051917,-0.416504,0.030420,-21.583822,-10.671289,-40.904053,,,,,,,
1504281063.338970,-0.015729,-0.063586,1.829174,-0.181423,0.026759,-0.033917,-0.015696,0.063543,-0.997856,0.051219,-0.415564,0.029518,-21.583822,-10.671289,-40.904053,,,,,,,
1504281063.348980,-0.015926,-0.065324,1.829000,-0.171387,-0.035157,-0.006038,-0.015891,0.065277,-0.997741,0.049888,-0.415940,0.027068,-21.434576,-10.370615,-40.905945,,,,,,,
1504281063.358989,-0.016732,-0.066846,1.829263,-0.143316,-0.097243,0.042154,-0.016694,0.066797,-0.997627,0.042176,-0.419915,0.025612,-21.434576,-10.370615,-40.905945,,,,,,,
1504281063.368999,-0.018018,-0.067895,1.830130,-0.086403,-0.145730,0.105315,-0.017976,0.067843,-0.997534,0.034638,-0.421237,0.024084,-21.810278,-10.221857,-41.133026,,,,,,,
1504281063.379009,-0.019565,-0.068257,1.831567,-0.017481,-0.168726,0.154575,-0.019518,0.068204,-0.997480,0.024767,-0.421322,0.027845,-21.810278,-10.221857,-41.133026,,,,,,,
1504281063.389019,-0.021152,-0.068034,1.833267,0.038974,-0.170273,0.170687,-0.021102,0.067982,-0.997463,0.010054,-0.420857,0.038738,-21.809301,-10.297907,-40.607452,,,,,,,
1504281063.399028,-0.022607,-0.067338,1.834937,0.085051,-0.151462,0.161127,-0.022554,0.067287,-0.997479,-0.000593,-0.415202,0.042202,-21.809301,-10.297907,-40.607452,,,,,,,
1504281063.409038,-0.023769,-0.066187,1.836441,0.130250,-0.115583,0.140861,-0.023715,0.066139,-0.997529,-0.008023,-0.413581,0.036942,-22.034979,-10.073771,-40.684662,,,,,,,
1504281063.419048,-0.024540,-0.064644,1.837731,0.165887,-0.075361,0.119504,-0.024486,0.064599,-0.997611,-0.013966,-0.412530,0.042945,-22.034979,-10.073771,-40.684662,,,,,,,
1504281063.429058,-0.025053,-0.062822,1.838852,0.189599,-0.055293,0.103499,-0.025001,0.062781,-0.997714,-0.023537,-0.412985,0.049853,-22.184866,-10.074594,-40.610046,,,,,,,
1504281063.439068,-0.025646,-0.060838,1.839871,0.204461,-0.071389,0.092879,-0.025596,0.060801,-0.997822,-0.028924,-0.417200,0.052738,-22.184866,-10.074594,-40.610046,,,,,,,
1504281063.449077,-0.026603,-0.058650,1.840738,0.228755,-0.112065,0.076982,-0.026554,0.058616,-0.997927,-0.030651,-0.426887,0.048617,-21.884222,-10.373087,-40.682037,,,,,,,
1504281063.459087,-0.027950,-0.056107,1.841409,0.266998,-0.147520,0.053627,-0.027902,0.056078,-0.998036,-0.031531,-0.436067,0.048284,-21.884222,-10.373087,-40.682037,,,,,,,
1504281063.469097,-0.029659,-0.053130,1.841771,0.308522,-0.180858,0.017467,-0.029613,0.053105,-0.998150,-0.026585,-0.441960,0.058437,-22.033209,-10.599360,-40.380737,,,,,,,
1504281063.479107,-0.031679,-0.049758,1.841778,0.346897,-0.207777,-0.018711,-0.031634,0.049737,-0.998261,-0.025998,-0.432504,0.069413,-22.033209,-10.599360,-40.380737,,,,,,,
1504281063.489106,-0.033972,-0.046098,1.841460,0.369271,-0.232435,-0.051718,-0.033929,0.046082,-0.998361,-0.018775,-0.431915,0.069666,-22.482412,-10.826685,-40.230164,,,,,,,
1504281063.499116,-0.036484,-0.042304,1.840867,0.377777,-0.252724,-0.078353,-0.036444,0.042292,-0.998440,-0.015512,-0.435053,0.075085,-22.482412,-10.826685,-40.230164,,,,,,,
1504281063.509126,-0.039163,-0.038582,1.840062,0.364951,-0.267517,-0.097562,-0.039123,0.038572,-0.998490,-0.011017,-0.434202,0.078430,-22.481054,-11.276987,-40.076752,,,,,,,
1504281063.519136,-0.041805,-0.034993,1.839096,0.350221,-0.253523,-0.116826,-0.041767,0.034985,-0.998515,-0.004711,-0.435971,0.072810,-22.481054,-11.276987,-40.076752,,,,,,,
1504281063.529145,-0.044128,-0.031667,1.837939,0.317529,-0.217004,-0.135093,-0.044092,0.031662,-0.998526,-0.005850,-0.442886,0.072180,-22.930380,-11.504160,-40.001190,,,,,,,
1504281063.539155,-0.045815,-0.028820,1.836567,0.264842,-0.145157,-0.152389,-0.045780,0.028816,-0.998536,-0.009899,-0.440391,0.081696,-22.930380,-11.504160,-40.001190,,,,,,,
1504281063.549165,-0.046590,-0.026506,1.835129,0.210160,-0.046669,-0.154792,-0.046557,0.026503,-0.998564,-0.011167,-0.436873,0.078840,-22.779181,-11.804087,-39.698578,,,,,,,
1504281063.559144,-0.046289,-0.024841,1.833706,0.141626,0.059383,-0.148694,-0.046259,0.024838,-0.998621,-0.015723,-0.444058,0.080286,-22.779181,-11.804087,-39.698578,,,,,,,
1504281063.569154,-0.045064,-0.023882,1.832295,0.072935,0.145192,-0.143627,-0.045036,0.023879,-0.998700,-0.018425,-0.446655,0.083051,-23.153723,-12.030619,-39.772797,,,,,,,
1504281063.579164,-0.043196,-0.023506,1.830973,0.021046,0.202083,-0.131008,-0.043171,0.023504,-0.998791,-0.014080,-0.441976,0.079709,-23.153723,-12.030619,-39.772797,,,,,,,
1504281063.589173,-0.040966,-0.023495,1.829772,-0.010793,0.233231,-0.115107,-0.040943,0.023492,-0.998885,-0.007855,-0.440820,0.079253,-22.628195,-12.327967,-39.919250,,,,,,,
1504281063.599183,-0.038533,-0.023604,1.828742,-0.013961,0.249221,-0.095928,-0.038512,0.023602,-0.998979,-0.004975,-0.441708,0.082109,-22.628195,-12.327967,-39.919250,,,,,,,
1504281063.609193,-0.035992,-0.023659,1.828031,-0.005537,0.256576,-0.061769,-0.035974,0.023657,-0.999073,-0.003348,-0.438788,0.083133,-22.478231,-12.401987,-40.068329,,,,,,,
1504281063.619203,-0.033535,-0.023592,1.827666,0.008031,0.239380,-0.028626,-0.033520,0.023590,-0.999160,-0.004978,-0.434799,0.090163,-22.478231,-12.401987,-40.068329,,,,,,,
1504281063.629213,-0.032103,0.008562,1.827508,0.018584,0.194506,-0.012510,-0.032096,-0.008562,-0.999448,-0.006722,-0.400587,0.088300,-22.328909,-12.176172,-40.144653,,,,,,,
1504281063.639222,-0.030873,0.036342,1.827377,0.029074,0.134739,-0.016654,-0.030847,-0.036334,-0.998864,-0.002325,-0.367917,0.084770,-22.328909,-12.176172,-40.144653,,,,,,,
1504281063.649232,-0.029610,0.060478,1.827107,0.046040,0.082390,-0.031482,-0.029552,-0.060441,-0.997734,0.003719,-0.336547,0.082009,-22.254065,-12.026133,-39.995605,,,,,,,
1504281063.659242,-0.028449,0.081976,1.826587,0.082407,0.052271,-0.055924,-0.028350,-0.081884,-0.996239,0.006209,-0.310923,0.080925,-22.254065,-12.026133,-39.995605,,,,,,,
1504281063.669252,-0.027603,0.101777,1.825882,0.162309,0.003672,-0.072785,-0.027457,-0.101601,-0.994446,0.006736,-0.290916,0.077668,-22.103872,-12.324717,-40.367981,,,,,,,
1504281063.679261,-0.027411,0.120608,1.824895,0.216379,-0.080928,-0.105639,-0.027209,-0.120316,-0.992363,0.009295,-0.270019,0.090965,-22.103872,-12.324717,-40.367981,,,,,,,
1504281063.689271,-0.028873,0.122716,1.823729,0.203913,-0.184169,-0.124692,-0.028652,-0.122408,-0.992066,0.013012,-0.276243,0.168381,-22.178122,-12.400797,-39.992584,,,,,,,
1504281063.699281,-0.030861,0.124541,1.822494,0.167388,-0.217962,-0.128965,-0.030617,-0.124219,-0.991782,0.018944,-0.275805,0.116599,-22.178122,-12.400797,-39.992584,,,,,,,
1504281063.709291,-0.032580,0.125724,1.821261,0.094131,-0.169412,-0.123841,-0.032317,-0.125393,-0.991581,0.006926,-0.278919,0.115680,-22.402517,-12.552103,-39.842041,,,,,,,
1504281063.719300,-0.033291,0.126158,1.820168,0.024549,-0.051645,-0.102821,-0.033021,-0.125824,-0.991503,-0.001876,-0.276474,0.097963,-22.402517,-12.552103,-39.842041,,,,,,,
1504281063.729310,-0.032718,0.126077,1.819281,-0.022533,0.076595,-0.083915,-0.032453,-0.125743,-0.991532,-0.020648,-0.269795,0.057404,-22.478155,-12.252588,-39.769470,,,,,,,
1504281063.739320,-0.031091,0.125593,1.818519,-0.060211,0.175993,-0.071347,-0.030841,-0.125263,-0.991644,-0.014844,-0.282009,0.061514,-22.478155,-12.252588,-39.769470,,,,,,,
1504281063.749330,-0.028688,0.124817,1.817834,-0.083149,0.247569,-0.064041,-0.028461,-0.124493,-0.991812,-0.014294,-0.274860,0.056784,-22.027105,-12.849970,-40.063843,,,,,,,
1504281063.759339,-0.025801,0.123935,1.817206,-0.091386,0.288124,-0.058790,-0.025601,-0.123617,-0.992000,-0.011768,-0.272882,0.062266,-22.027105,-12.849970,-40.063843,,,,,,,
1504281063.769349,-0.022766,0.123002,1.816622,-0.094540,0.296671,-0.054541,-0.022592,-0.122692,-0.992188,-0.005729,-0.280735,0.070343,-21.952902,-12.400080,-39.842041,,,,,,,
1504281063.779359,-0.019803,0.122041,1.816019,-0.098883,0.283925,-0.059863,-0.019654,-0.121739,-0.992368,-0.004104,-0.286098,0.076367,-21.952902,-12.400080,-39.842041,,,,,,,
1504281063.789369,-0.017171,0.121105,1.815329,-0.092766,0.242326,-0.069386,-0.017044,-0.120809,-0.992529,-0.000152,-0.289500,0.082678,-21.803915,-12.173807,-40.143341,,,,,,,
1504281063.799379,-0.015091,0.120426,1.814549,-0.057995,0.182375,-0.077759,-0.014981,-0.120135,-0.992644,0.007153,-0.291745,0.086379,-21.803915,-12.173807,-40.143341,,,,,,,
1504281063.809388,-0.013674,0.120227,1.813748,-0.006245,0.114818,-0.079685,-0.013575,-0.119937,-0.992689,0.014383,-0.293362,0.090986,-21.504293,-12.022455,-40.143738,,,,,,,
1504281063.819398,-0.013022,0.120581,1.812930,0.047534,0.033393,-0.082650,-0.012927,-0.120289,-0.992655,0.014956,-0.289226,0.100183,-21.504293,-12.022455,-40.143738,,,,,,,
1504281063.829408,-0.013163,0.121389,1.812119,0.089609,-0.040482,-0.080312,-0.013066,-0.121091,-0.992555,0.016941,-0.286700,0.098970,-21.579153,-12.172495,-40.292786,,,,,,,
1504281063.839418,-0.013868,0.122501,1.811374,0.114782,-0.090780,-0.073776,-0.013764,-0.122194,-0.992411,0.018937,-0.287565,0.097818,-21.579153,-12.172495,-40.292786,,,,,,,
1504281063.849427,-0.014920,0.123715,1.810713,0.120893,-0.121741,-0.065171,-0.014806,-0.123400,-0.992247,0.017216,-0.286894,0.099256,-21.353476,-12.396631,-40.215576,,,,,,,
1504281063.859437,-0.016168,0.124885,1.810133,0.112216,-0.133401,-0.055559,-0.016041,-0.124561,-0.992082,0.016194,-0.286374,0.096834,-21.353476,-12.396631,-40.215576,,,,,,,
1504281063.869447,-0.017335,0.125974,1.809687,0.106949,-0.116323,-0.041722,-0.017197,-0.125641,-0.991927,0.014801,-0.284668,0.094481,-21.803122,-12.623362,-40.364990,,,,,,,
1504281063.879457,-0.018302,0.126993,1.809317,0.097488,-0.096003,-0.037505,-0.018154,-0.126652,-0.991781,0.013256,-0.279552,0.101415,-21.803122,-12.623362,-40.364990,,,,,,,
1504281063.889436,-0.019043,0.127823,1.808894,0.075297,-0.074499,-0.046120,-0.018886,-0.127476,-0.991662,0.014843,-0.279965,0.103524,-21.802145,-12.923655,-40.212738,,,,,,,
1504281063.899446,-0.019616,0.128401,1.808391,0.049835,-0.060430,-0.052594,-0.019453,-0.128048,-0.991577,0.017576,-0.279850,0.096832,-21.802145,-12.923655,-40.212738,,,,,,,
1504281063.909455,-0.020020,0.128673,1.807795,0.018013,-0.043108,-0.062286,-0.019853,-0.128318,-0.991534,0.014756,-0.278146,0.093280,-21.802221,-12.848810,-40.138275,,,,,,,
1504281063.919465,-0.020159,0.128616,1.807153,-0.014810,-0.012998,-0.064531,-0.019991,-0.128262,-0.991539,0.013094,-0.283725,0.090935,-21.802221,-12.848810,-40.138275,,,,,,,
1504281063.929475,-0.019452,0.145829,1.806458,-0.049635,0.016051,-0.059305,-0.019245,-0.145313,-0.989199,0.009921,-0.269833,0.089067,-21.427572,-12.622431,-39.989044,,,,,,,
1504281063.939485,-0.018947,0.160683,1.805897,-0.075033,0.029034,-0.048693,-0.018702,-0.159992,-0.986941,0.006785,-0.252224,0.081286,-21.427572,-12.622431,-39.989044,,,,,,,
1504281063.949495,-0.018361,0.173644,1.805434,-0.093030,0.034500,-0.040191,-0.018084,-0.172773,-0.984796,0.006518,-0.235949,0.078012,-21.652563,-12.623438,-39.989624,,,,,,,
1504281063.959504,-0.017389,0.185195,1.804889,-0.100389,0.030298,-0.043402,-0.017091,-0.184138,-0.982752,0.009370,-0.221837,0.080027,-21.652563,-12.623438,-39.989624,,,,,,,
1504281063.969514,-0.016329,0.195400,1.804258,-0.100483,0.003656,-0.044430,-0.016018,-0.194159,-0.980839,0.011760,-0.207590,0.075978,-21.577902,-12.622644,-40.214447,,,,,,,
1504281063.979524,-0.016071,0.204437,1.803743,-0.077228,-0.032774,-0.038989,-0.015735,-0.203016,-0.979049,0.008503,-0.191592,0.067230,-21.577902,-12.622644,-40.214447,,,,,,,
1504281063.989534,-0.016561,0.212744,1.803419,-0.036843,-0.057625,-0.029264,-0.016187,-0.211143,-0.977321,0.004758,-0.177132,0.062099,-21.728430,-12.323618,-40.067047,,,,,,,
1504281063.999543,-0.017478,0.220752,1.803255,0.012150,-0.071892,-0.018473,-0.017053,-0.218964,-0.975584,0.002283,-0.165802,0.063078,-21.728430,-12.323618,-40.067047,,,,,,,
1504281064.009553,-0.018725,0.228664,1.803258,0.051592,-0.079684,-0.008775,-0.018236,-0.226676,-0.973799,-0.000013,-0.158578,0.064894,-21.653845,-12.247980,-40.217438,,,,,,,
1504281064.019563,-0.019925,0.236345,1.803364,0.067672,-0.072367,0.001922,-0.019370,-0.234150,-0.972007,-0.000253,-0.154277,0.063591,-21.653845,-12.247980,-40.217438,,,,,,,
1504281064.029573,-0.020870,0.243572,1.803543,0.059284,-0.056323,0.011492,-0.020252,-0.241171,-0.970271,0.000324,-0.151056,0.059505,-21.802374,-12.699106,-39.989410,,,,,,,
1504281064.039582,-0.021434,0.250371,1.803762,0.037010,-0.041233,0.022103,-0.020765,-0.247763,-0.968598,0.002576,-0.151971,0.056840,-21.802374,-12.699106,-39.989410,,,,,,,
1504281064.049592,-0.021509,0.256712,1.804008,0.012640,-0.021864,0.031631,-0.020803,-0.253901,-0.967006,0.006124,-0.151097,0.057476,-21.803808,-12.173960,-40.068329,,,,,,,
1504281064.059602,-0.021239,0.262600,1.804281,-0.004285,-0.005753,0.040108,-0.020509,-0.259593,-0.965500,0.008485,-0.146581,0.062958,-21.803808,-12.173960,-40.068329,,,,,,,
1504281064.069612,-0.020904,0.268081,1.804555,-0.014900,-0.006734,0.039019,-0.020156,-0.264882,-0.964070,0.009307,-0.142070,0.065663,-21.802557,-12.624109,-39.989990,,,,,,,
1504281064.079621,-0.020632,0.273170,1.804752,-0.016978,-0.013102,0.028348,-0.019865,-0.269785,-0.962716,0.009108,-0.137121,0.062172,-21.802557,-12.624109,-39.989990,,,,,,,
1504281064.089631,-0.020695,0.277982,1.804824,-0.013683,-0.021632,0.005953,-0.019899,-0.274416,-0.961405,0.005281,-0.132017,0.061182,-21.503057,-12.472605,-40.065338,,,,,,,
1504281064.099641,-0.020852,0.282569,1.804684,-0.016823,-0.033306,-0.015380,-0.020023,-0.278823,-0.960134,0.004765,-0.128876,0.060491,-21.503057,-12.472605,-40.065338,,,,,,,
1504281064.109651,-0.021192,0.286886,1.804476,-0.027510,-0.043870,-0.019649,-0.020325,-0.282967,-0.958914,0.003372,-0.128410,0.056036,-21.802374,-12.699106,-39.989410,,,,,,,
1504281064.119661,-0.021782,0.290924,1.804323,-0.041325,-0.042690,-0.019670,-0.020865,-0.286837,-0.957752,-0.000360,-0.130094,0.050968,-21.802374,-12.699106,-39.989410,,,,,,,
1504281064.129670,-0.022405,0.294787,1.804233,-0.039155,-0.039516,-0.013264,-0.021436,-0.290536,-0.956624,-0.001070,-0.129569,0.046987,-21.727331,-12.848322,-40.213104,,,,,,,
1504281064.139680,-0.023167,0.298521,1.804298,-0.026260,-0.027907,-0.004716,-0.022140,-0.294107,-0.955516,-0.004700,-0.124427,0.046871,-21.727331,-12.848322,-40.213104,,,,,,,
1504281064.149690,-0.023970,0.302194,1.804470,-0.011205,-0.015246,-0.000434,-0.022881,-0.297615,-0.954412,-0.007575,-0.118065,0.049749,-21.652563,-12.623438,-39.989624,,,,,,,
1504281064.159700,-0.024587,0.305714,1.804604,-0.001587,-0.018519,-0.001473,-0.023445,-0.300974,-0.953344,-0.005318,-0.112982,0.045965,-21.652563,-12.623438,-39.989624,,,,,,,
1504281064.169709,-0.025436,0.309022,1.804702,-0.001607,-0.031293,-0.011050,-0.024228,-0.304127,-0.952323,-0.008395,-0.109219,0.039543,-21.877035,-12.699900,-39.764587,,,,,,,
1504281064.179719,-0.026486,0.312078,1.804608,-0.014372,-0.047141,-0.037721,-0.025204,-0.307037,-0.951364,-0.011188,-0.107407,0.035119,-21.877035,-12.699900,-39.764587,,,,,,,
1504281064.189729,-0.027373,0.314929,1.804081,-0.027135,-0.067245,-0.071859,-0.026024,-0.309749,-0.950462,-0.007118,-0.109089,0.029884,-21.652075,-12.773584,-39.913483,,,,,,,
1504281064.199739,-0.028179,0.317534,1.803223,-0.034527,-0.076749,-0.096401,-0.026767,-0.312224,-0.949631,-0.005658,-0.106187,0.025773,-21.652075,-12.773584,-39.913483,,,,,,,
1504281064.209748,-0.029148,0.320143,1.802276,-0.028030,-0.075722,-0.108126,-0.027663,-0.314702,-0.948787,-0.009874,-0.105372,0.029537,-21.877905,-12.624002,-40.215179,,,,,,,
1504281064.219758,-0.030195,0.322894,1.801248,-0.014126,-0.081152,-0.117692,-0.028631,-0.317312,-0.947889,-0.011469,-0.105570,0.033475,-21.877905,-12.624002,-40.215179,,,,,,,
1504281064.229737,-0.031069,0.325725,1.800060,0.001930,-0.085534,-0.129393,-0.029431,-0.319996,-0.946962,-0.008121,-0.104015,0.033815,-22.102072,-12.775614,-39.914581,,,,,,,
1504281064.239747,-0.031861,0.328606,1.798751,0.018048,-0.081392,-0.140042,-0.030151,-0.322724,-0.946013,-0.007874,-0.100768,0.032637,-22.102072,-12.775614,-39.914581,,,,,,,
1504281064.249757,-0.032566,0.331522,1.797310,0.030932,-0.082550,-0.152822,-0.030788,-0.325483,-0.945047,-0.007558,-0.096713,0.034814,-21.877295,-12.774302,-40.064026,,,,,,,
1504281064.259767,-0.033328,0.334348,1.795682,0.030886,-0.102776,-0.170928,-0.031477,-0.328154,-0.944100,-0.006899,-0.092836,0.034615,-21.877295,-12.774302,-40.064026,,,,,,,
1504281064.269777,-0.034197,0.336989,1.793781,0.025420,-0.136806,-0.194359,-0.032267,-0.330647,-0.943203,-0.003988,-0.089840,0.029278,-22.102606,-12.475901,-39.766846,,,,,,,
1504281064.279786,-0.035162,0.339542,1.791604,0.027394,-0.170904,-0.212440,-0.033148,-0.333055,-0.942325,-0.000422,-0.088683,0.026049,-22.102606,-12.475901,-39.766846,,,,,,,
1504281064.289796,-0.036285,0.342136,1.789251,0.034802,-0.191195,-0.228403,-0.034174,-0.335500,-0.941420,0.000056,-0.086832,0.029570,-22.101507,-13.000605,-39.912903,,,,,,,
1504281064.299806,-0.037631,0.344696,1.786785,0.049443,-0.207218,-0.240959,-0.035409,-0.337910,-0.940512,-0.001838,-0.079906,0.030249,-22.101507,-13.000605,-39.912903,,,,,,,
1504281064.309816,-0.039070,0.347272,1.784295,0.066591,-0.203091,-0.246271,-0.036728,-0.340334,-0.939587,-0.004501,-0.074522,0.028424,-22.475073,-13.303186,-39.461578,,,,,,,
1504281064.319825,-0.040397,0.349903,1.781854,0.077411,-0.182938,-0.240948,-0.037939,-0.342807,-0.938640,-0.005884,-0.069318,0.032573,-22.475073,-13.303186,-39.461578,,,,,,,
1504281064.329835,-0.041582,0.352428,1.779535,0.083975,-0.158492,-0.231369,-0.039015,-0.345177,-0.937726,-0.007921,-0.063071,0.029370,-22.250189,-13.302027,-39.536011,,,,,,,
1504281064.339845,-0.042508,0.354923,1.777247,0.081963,-0.142496,-0.227128,-0.039847,-0.347518,-0.936826,-0.005930,-0.062913,0.027052,-22.250189,-13.302027,-39.536011,,,,,,,
1504281064.349855,-0.043082,0.357260,1.774850,0.073458,-0.140295,-0.227147,-0.040349,-0.349708,-0.935989,0.001470,-0.060387,0.024734,-22.399511,-13.527857,-39.459717,,,,,,,
1504281064.359864,-0.043361,0.359318,1.772406,0.060755,-0.127408,-0.223992,-0.040579,-0.351636,-0.935257,0.006338,-0.056690,0.017624,-22.399511,-13.527857,-39.459717,,,,,,,
1504281064.369874,-0.043450,0.361273,1.770010,0.049184,-0.104943,-0.218716,-0.040632,-0.353465,-0.934565,0.006590,-0.057393,0.018595,-22.399618,-13.527704,-39.534698,,,,,,,
1504281064.379884,-0.043227,0.362953,1.767684,0.022735,-0.071704,-0.208149,-0.040398,-0.355036,-0.933979,0.007180,-0.055547,0.019734,-22.399618,-13.527704,-39.534698,,,,,,,
1504281064.389894,-0.042657,0.364178,1.765491,-0.018550,-0.024492,-0.195497,-0.039848,-0.356181,-0.933567,0.005714,-0.055059,0.014591,-22.774801,-13.454386,-39.536194,,,,,,,
1504281064.399903,-0.041625,0.364920,1.763410,-0.064036,0.029152,-0.186065,-0.038873,-0.356874,-0.933343,0.004311,-0.055891,0.010827,-22.774801,-13.454386,-39.536194,,,,,,,
1504281064.409913,-0.039995,0.365178,1.761339,-0.102157,0.069947,-0.176599,-0.037348,-0.357115,-0.933313,0.009638,-0.053377,0.009195,-22.173788,-13.677286,-39.233002,,,,,,,
1504281064.419923,-0.037896,0.365081,1.759319,-0.131799,0.104277,-0.166042,-0.035390,-0.357025,-0.933424,0.013860,-0.052979,0.008116,-22.173788,-13.677286,-39.233002,,,,,,,
1504281064.429933,-0.035505,0.364787,1.757402,-0.146616,0.126759,-0.152236,-0.033162,-0.356750,-0.933611,0.016606,-0.053299,0.008440,-22.324209,-13.602671,-39.383942,,,,,,,
1504281064.439943,-0.033020,0.364392,1.755518,-0.159440,0.124727,-0.149058,-0.030846,-0.356382,-0.933831,0.019021,-0.053149,0.013619,-22.324209,-13.602671,-39.383942,,,,,,,
1504281064.449952,-0.030577,0.363842,1.753557,-0.167001,0.106680,-0.157585,-0.028571,-0.355867,-0.934100,0.022224,-0.051024,0.012225,-22.324667,-13.377817,-39.310638,,,,,,,
1504281064.459962,-0.028205,0.363070,1.751501,-0.168087,0.099233,-0.163985,-0.026363,-0.355146,-0.934439,0.023159,-0.045657,0.004858,-22.324667,-13.377817,-39.310638,,,,,,,
1504281064.469972,-0.026055,0.362411,1.749537,-0.153102,0.105499,-0.161840,-0.024360,-0.354530,-0.934727,0.015922,-0.046349,0.004155,-22.025412,-13.300714,-39.685455,,,,,,,
1504281064.479982,-0.023961,0.361999,1.747683,-0.130662,0.112766,-0.155412,-0.022406,-0.354145,-0.934922,0.012304,-0.046383,0.008271,-22.025412,-13.300714,-39.685455,,,,,,,
1504281064.489958,-0.021978,0.361751,1.745937,-0.098841,0.094377,-0.145722,-0.020554,-0.353912,-0.935053,0.013596,-0.040695,0.006800,-21.949850,-13.525385,-39.683594,,,,,,,
1504281064.499968,-0.020208,0.361776,1.744244,-0.058558,0.066329,-0.137068,-0.018899,-0.353936,-0.935079,0.016915,-0.035865,0.003758,-21.949850,-13.525385,-39.683594,,,,,,,
1504281064.509978,-0.018672,0.362180,1.742655,-0.018319,0.036144,-0.123074,-0.017460,-0.354314,-0.934964,0.021412,-0.035732,0.002423,-21.575460,-13.373392,-39.833801,,,,,,,
1504281064.519988,-0.017442,0.362984,1.741225,0.023996,0.000610,-0.105866,-0.016304,-0.355065,-0.934699,0.025185,-0.034156,0.003257,-21.575460,-13.373392,-39.833801,,,,,,,
1504281064.529997,-0.016623,0.364080,1.740037,0.058849,-0.030605,-0.083341,-0.015533,-0.356090,-0.934323,0.025497,-0.029805,0.004284,-21.874731,-13.525202,-39.608398,,,,,,,
1504281064.540007,-0.016086,0.365480,1.739042,0.083238,-0.041479,-0.069409,-0.015023,-0.357397,-0.933832,0.024330,-0.030847,0.005884,-21.874731,-13.525202,-39.608398,,,,,,,
1504281064.550017,-0.015711,0.367130,1.738131,0.097038,-0.049057,-0.066175,-0.014664,-0.358939,-0.933246,0.022735,-0.034982,0.009189,-21.875601,-13.225046,-39.685638,,,,,,,
1504281064.559996,-0.015361,0.368917,1.737195,0.096014,-0.047979,-0.071520,-0.014327,-0.360605,-0.932608,0.021544,-0.038946,0.014396,-21.875601,-13.225046,-39.685638,,,,,,,
1504281064.570006,-0.014994,0.370650,1.736132,0.077992,-0.044618,-0.087572,-0.013975,-0.362222,-0.931987,0.019880,-0.041175,0.019908,-21.949591,-13.675241,-39.757477,,,,,,,
1504281064.580016,-0.014573,0.372135,1.734881,0.050344,-0.045438,-0.105768,-0.013575,-0.363605,-0.931454,0.019328,-0.042492,0.019559,-21.949591,-13.675241,-39.757477,,,,,,,
1504281064.590025,-0.014023,0.373418,1.733481,0.027060,-0.030316,-0.117580,-0.013057,-0.364800,-0.930994,0.018260,-0.045890,0.018549,-21.875448,-13.374750,-39.834534,,,,,,,
1504281064.600035,-0.013207,0.374649,1.732025,0.014505,-0.002504,-0.120856,-0.012291,-0.365946,-0.930555,0.017906,-0.047903,0.026594,-21.875448,-13.374750,-39.834534,,,,,,,
1504281064.610045,-0.012291,0.375754,1.730682,0.006217,0.030593,-0.115592,-0.011434,-0.366974,-0.930161,0.010075,-0.043869,0.030381,-21.874548,-13.600199,-39.607849,,,,,,,
1504281064.620055,-0.011203,0.376678,1.729404,0.003247,0.058323,-0.115647,-0.010417,-0.367833,-0.929834,0.005290,-0.037120,0.029931,-21.874548,-13.600199,-39.607849,,,,,,,
1504281064.630065,-0.009800,0.377525,1.728038,0.003440,0.077509,-0.122086,-0.009110,-0.368621,-0.929535,0.008667,-0.035035,0.025421,-21.874929,-13.450190,-39.608978,,,,,,,
1504281064.640074,-0.008248,0.378333,1.726519,-0.001720,0.087161,-0.140258,-0.007665,-0.369372,-0.929250,0.007024,-0.033949,0.026357,-21.874929,-13.450190,-39.608978,,,,,,,
1504281064.650084,-0.006662,0.378944,1.724820,-0.016567,0.086237,-0.158428,-0.006190,-0.369940,-0.929035,0.004587,-0.031519,0.024021,-21.425726,-13.222879,-39.759552,,,,,,,
1504281064.660094,-0.005160,0.379352,1.723009,-0.037926,0.076834,-0.168055,-0.004793,-0.370319,-0.928892,0.002230,-0.033307,0.019697,-21.425726,-13.222879,-39.759552,,,,,,,
1504281064.670104,-0.003765,0.379543,1.721145,-0.059355,0.062097,-0.172335,-0.003497,-0.370496,-0.928827,0.002246,-0.035525,0.017252,-21.574408,-13.748545,-39.755981,,,,,,,
1504281064.680113,-0.002551,0.379544,1.719283,-0.065936,0.040836,-0.169107,-0.002370,-0.370497,-0.928831,0.003392,-0.032915,0.013135,-21.574408,-13.748545,-39.755981,,,,,,,
1504281064.690123,-0.001539,0.379522,1.717519,-0.056532,0.022632,-0.157317,-0.001429,-0.370477,-0.928841,0.004664,-0.027228,0.016106,-21.725271,-13.673334,-40.206909,,,,,,,
1504281064.700133,-0.000817,0.379717,1.715874,-0.036509,-0.003117,-0.147631,-0.000759,-0.370658,-0.928769,0.004574,-0.024682,0.025144,-21.725271,-13.673334,-40.206909,,,,,,,
1504281064.710143,-0.000407,0.379983,1.714279,-0.027160,-0.034099,-0.145425,-0.000378,-0.370904,-0.928671,0.004437,-0.022498,0.024344,-21.574774,-13.598551,-39.757111,,,,,,,
1504281064.720152,-0.000207,0.380194,1.712566,-0.023062,-0.063956,-0.158175,-0.000192,-0.371101,-0.928593,0.006601,-0.020058,0.016865,-21.574774,-13.598551,-39.757111,,,,,,,
1504281064.730162,-0.000153,0.380363,1.710686,-0.026242,-0.072436,-0.175245,-0.000142,-0.371258,-0.928530,0.004751,-0.018406,0.015017,-21.349630,-13.747232,-39.905426,,,,,,,
1504281064.740172,0.000068,0.380437,1.708683,-0.045044,-0.033900,-0.193490,0.000063,-0.371326,-0.928503,-0.002932,-0.023327,0.010183,-21.349630,-13.747232,-39.905426,,,,,,,
1504281064.750182,0.000932,0.380210,1.706520,-0.090126,0.051743,-0.215064,0.000865,-0.371116,-0.928586,-0.010127,-0.028023,0.010358,-21.123648,-14.046534,-39.752625,,,,,,,
1504281064.760192,0.002937,0.379269,1.704064,-0.167992,0.166439,-0.248488,0.002728,-0.370241,-0.928932,-0.014905,-0.029325,0.007438,-21.123648,-14.046534,-39.752625,,,,,,,
1504281064.770201,0.006138,0.377500,1.701185,-0.249219,0.257725,-0.287213,0.005706,-0.368598,-0.929572,-0.013076,-0.037378,-0.005335,-21.349249,-13.897242,-39.904297,,,,,,,
1504281064.780211,0.009866,0.374945,1.697772,-0.311902,0.257232,-0.340689,0.009180,-0.366221,-0.930483,-0.010935,-0.034917,-0.005278,-21.349249,-13.897242,-39.904297,,,,,,,
1504281064.790221,0.013147,0.371782,1.693600,-0.337012,0.142427,-0.409911,0.012248,-0.363276,-0.931601,-0.002406,-0.022878,-0.010492,-21.124746,-13.746073,-39.979889,,,,,,,
1504281064.800231,0.015235,0.368375,1.688687,-0.334902,-0.031222,-0.469377,0.014212,-0.360100,-0.932806,0.014169,-0.014351,-0.022883,-21.124746,-13.746073,-39.979889,,,,,,,
1504281064.810240,0.015534,0.365480,1.683335,-0.260437,-0.216144,-0.507349,0.014508,-0.357398,-0.933840,0.007892,-0.018838,-0.030699,-20.900427,-13.519922,-40.056000,,,,,,,
1504281064.820250,0.014197,0.364429,1.677558,-0.090676,-0.367738,-0.559089,0.013264,-0.356416,-0.934233,-0.003544,-0.036696,0.000578,-20.900427,-13.519922,-40.056000,,,,,,,
1504281064.830260,0.012377,0.364648,1.670928,0.042637,-0.425228,-0.639879,0.011563,-0.356620,-0.934178,0.003162,-0.030465,0.057728,-20.825537,-13.519434,-40.130829,,,,,,,
1504281064.840270,0.010977,0.365188,1.663848,0.060196,-0.372080,-0.652751,0.010253,-0.357125,-0.934000,0.003053,-0.013419,0.049738,-20.825537,-13.519434,-40.130829,,,,,,,
1504281064.850279,0.010553,0.365516,1.657168,0.031174,-0.242940,-0.616738,0.009856,-0.357431,-0.933887,-0.064772,-0.011099,0.012516,-21.049932,-13.670740,-39.980255,,,,,,,
1504281064.860289,0.011714,0.365236,1.650576,-0.044403,-0.085678,-0.613944,0.010941,-0.357170,-0.933975,-0.098892,-0.065758,0.007431,-21.049932,-13.670740,-39.980255,,,,,,,
1504281064.870299,0.013122,0.364824,1.644297,-0.091101,-0.042689,-0.593816,0.012258,-0.356785,-0.934106,-0.065466,-0.106838,-0.012366,-21.049444,-13.820887,-39.904114,,,,,,,
1504281064.880309,0.014389,0.364413,1.637961,-0.008547,-0.125422,-0.592459,0.013444,-0.356401,-0.934236,-0.055131,-0.047194,-0.016813,-21.049444,-13.820887,-39.904114,,,,,,,
1504281064.890318,0.014175,0.365182,1.631583,0.121324,-0.296985,-0.594066,0.013240,-0.357120,-0.933965,-0.012767,-0.015469,0.012151,-20.899176,-13.970072,-39.977631,,,,,,,
1504281064.900298,0.011932,0.367518,1.625244,0.285009,-0.502938,-0.584880,0.011135,-0.359300,-0.933156,0.018116,-0.015898,-0.010341,-20.899176,-13.970072,-39.977631,,,,,,,
1504281064.910307,0.007778,0.371518,1.619045,0.449860,-0.689731,-0.565053,0.007247,-0.363031,-0.931749,0.021089,0.015451,0.001497,-21.048193,-14.046793,-39.452454,,,,,,,
1504281064.920317,0.001987,0.376988,1.613134,0.578806,-0.828279,-0.542170,0.001847,-0.368121,-0.929776,0.015715,0.043231,0.016888,-21.048193,-14.046793,-39.452454,,,,,,,
1504281064.930327,-0.004801,0.383305,1.607423,0.638909,-0.908708,-0.528047,-0.004453,-0.373988,-0.927423,0.011167,0.064540,0.005380,-21.421499,-14.723475,-39.448303,,,,,,,
1504281064.940337,-0.012153,0.389682,1.601839,0.626830,-0.950169,-0.525860,-0.011242,-0.379894,-0.924962,0.001583,0.071346,-0.026790,-21.421499,-14.723475,-39.448303,,,,,,,
1504281064.950347,-0.019410,0.396002,1.595888,0.627039,-0.953319,-0.572820,-0.017906,-0.385733,-0.922437,0.022484,0.091376,-0.063525,-22.093222,-15.627863,-38.768158,,,,,,,
1504281064.960356,-0.026409,0.402601,1.589144,0.652992,-0.965162,-0.661349,-0.024295,-0.391812,-0.919724,0.048206,0.082547,-0.071975,-22.093222,-15.627863,-38.768158,,,,,,,
1504281064.970366,-0.033039,0.409592,1.581122,0.679096,-0.983358,-0.790427,-0.030301,-0.398235,-0.916783,0.041577,0.062526,-0.079937,-22.616293,-16.081263,-38.241089,,,,,,,
1504281064.980376,-0.039457,0.416377,1.571831,0.626960,-1.031835,-0.897172,-0.036076,-0.404450,-0.913848,0.034886,0.049378,-0.097840,-22.616293,-16.081263,-38.241089,,,,,,,
1504281064.990386,-0.047065,0.422201,1.562173,0.508229,-1.205611,-0.901341,-0.042916,-0.409769,-0.911179,0.009362,0.007639,-0.155364,-22.837912,-16.983774,-37.484863,,,,,,,
1504281065.000395,-0.056979,0.426441,1.552649,0.330237,-1.438595,-0.884160,-0.051848,-0.413634,-0.908966,-0.002687,-0.075990,-0.203003,-22.837912,-16.983774,-37.484863,,,,,,,
1504281065.010405,-0.069284,0.428628,1.543637,0.109446,-1.652103,-0.811583,-0.062966,-0.415623,-0.907355,0.046319,-0.032589,-0.223825,-23.885229,-17.739542,-36.956818,,,,,,,
1504281065.020415,-0.083685,0.428586,1.535345,-0.116378,-1.824018,-0.732683,-0.076028,-0.415585,-0.906371,0.037835,0.047253,-0.213014,-23.885229,-17.739542,-36.956818,,,,,,,
1504281065.030425,-0.099319,0.426515,1.527435,-0.322054,-1.901221,-0.691275,-0.090273,-0.413700,-0.905927,0.025514,0.064442,-0.180041,-24.933493,-18.120310,-36.431610,,,,,,,
1504281065.040434,-0.114386,0.422549,1.519110,-0.522899,-1.821742,-0.725920,-0.104098,-0.410087,-0.906086,0.055346,0.061866,-0.118511,-24.933493,-18.120310,-36.431610,,,,,,,
1504281065.050444,-0.127600,0.416861,1.509524,-0.717547,-1.675114,-0.825785,-0.116357,-0.404892,-0.906931,0.101205,0.053055,-0.040487,-25.982946,-17.976236,-35.835266,,,,,,,
1504281065.060454,-0.138953,0.409702,1.498535,-0.881384,-1.544723,-0.925567,-0.127044,-0.398336,-0.908399,0.113036,-0.004573,0.027433,-25.982946,-17.976236,-35.835266,,,,,,,
1504281065.070464,-0.149074,0.401230,1.486337,-1.040534,-1.482591,-1.004940,-0.136727,-0.390551,-0.910371,0.084511,-0.078596,0.085725,-26.732641,-17.830500,-35.388245,,,,,,,
1504281065.080473,-0.159100,0.391325,1.473008,-1.215583,-1.537549,-1.078797,-0.146453,-0.381414,-0.912730,0.047377,-0.105204,0.099680,-26.732641,-17.830500,-35.388245,,,,,,,
1504281065.090483,-0.169814,0.379818,1.458643,-1.396377,-1.635099,-1.138713,-0.156955,-0.370752,-0.915373,0.020572,-0.069190,0.078398,-27.258169,-17.533152,-35.241791,,,,,,,
1504281065.100493,-0.181014,0.366824,1.443259,-1.571532,-1.693269,-1.196553,-0.168050,-0.358652,-0.918220,-0.003749,-0.027151,0.081367,-27.258169,-17.533152,-35.241791,,,,,,,
1504281065.110503,-0.192575,0.352635,1.427017,-1.707139,-1.732602,-1.238348,-0.179610,-0.345372,-0.921118,-0.017228,-0.014964,0.080252,-28.158911,-17.237207,-35.246277,,,,,,,
1504281065.120513,-0.204390,0.337839,1.410193,-1.779686,-1.747962,-1.264064,-0.191497,-0.331449,-0.923835,-0.004823,-0.042132,0.076392,-28.158911,-17.237207,-35.246277,,,,,,,
1504281065.130522,-0.216072,0.322843,1.393134,-1.806051,-1.709383,-1.264178,-0.203318,-0.317264,-0.926286,0.009730,-0.086499,0.095429,-28.984808,-16.566950,-34.728363,,,,,,,
1504281065.140532,-0.227215,0.308199,1.376105,-1.769037,-1.608470,-1.250415,-0.214651,-0.303343,-0.928390,0.008962,-0.110934,0.122986,-28.984808,-16.566950,-34.728363,,,,,,,
1504281065.150542,-0.236910,0.294454,1.359631,-1.671579,-1.397271,-1.199383,-0.224599,-0.290218,-0.930231,0.013112,-0.103291,0.167062,-29.660376,-16.120737,-34.358398,,,,,,,
1504281065.160552,-0.244614,0.281804,1.344105,-1.550480,-1.148998,-1.122758,-0.232629,-0.278089,-0.931961,0.009454,-0.066363,0.210556,-29.660376,-16.120737,-34.358398,,,,,,,
1504281065.170561,-0.250528,0.270298,1.329882,-1.416932,-0.926433,-1.016179,-0.238914,-0.267019,-0.933607,0.003181,-0.019526,0.215848,-30.186850,-15.448389,-34.214752,,,,,,,
1504281065.180571,-0.255217,0.259871,1.317057,-1.284946,-0.767788,-0.912692,-0.243979,-0.256956,-0.935119,-0.010248,0.002287,0.207794,-30.186850,-15.448389,-34.214752,,,,,,,
1504281065.190581,-0.259026,0.250469,1.305306,-1.169110,-0.650529,-0.846519,-0.248147,-0.247858,-0.936477,-0.027519,0.014688,0.185226,-30.637548,-15.299967,-34.441986,,,,,,,
1504281065.200591,-0.262157,0.242123,1.294062,-1.059631,-0.565124,-0.840076,-0.251605,-0.239765,-0.937661,-0.032773,0.022067,0.161828,-30.637548,-15.299967,-34.441986,,,,,,,
1504281065.210600,-0.264365,0.234973,1.282775,-0.946519,-0.459445,-0.888099,-0.254116,-0.232817,-0.938734,-0.032978,0.007826,0.142424,-30.488577,-14.849436,-34.369995,,,,,,,
1504281065.220610,-0.265284,0.229098,1.271038,-0.838360,-0.325987,-0.968202,-0.255333,-0.227099,-0.939804,-0.039787,-0.020658,0.139465,-30.488577,-14.849436,-34.369995,,,,,,,
1504281065.230589,-0.264817,0.225019,1.258842,-0.635264,-0.201825,-1.058799,-0.255134,-0.223125,-0.940809,-0.051934,-0.046909,0.133482,-30.639441,-14.549967,-34.447632,,,,,,,
1504281065.240599,-0.263888,0.222317,1.246203,-0.585291,-0.142475,-1.143141,-0.254416,-0.220490,-0.941624,-0.061242,-0.084076,0.081090,-30.639441,-14.549967,-34.447632,,,,,,,
1504281065.250609,-0.260779,0.219485,1.233013,-0.608212,0.037837,-1.178723,-0.251648,-0.217727,-0.943010,-0.050934,-0.010575,0.051576,-30.639669,-14.549662,-34.597656,,,,,,,
1504281065.260619,-0.257385,0.216508,1.219399,-0.643123,0.049888,-1.219366,-0.248609,-0.214821,-0.944481,-0.092363,-0.023552,0.090081,-30.639669,-14.549662,-34.597656,,,,,,,
1504281065.270629,-0.254298,0.212820,1.205004,-0.738362,-0.025983,-1.284509,-0.245890,-0.211217,-0.946005,-0.076772,-0.011821,0.034079,-29.964483,-14.845881,-34.968719,,,,,,,
1504281065.280638,-0.251956,0.208032,1.189431,-0.882644,-0.115273,-1.378533,-0.243924,-0.206535,-0.947547,-0.058612,0.005042,-0.002252,-29.964483,-14.845881,-34.968719,,,,,,,
1504281065.290648,-0.250349,0.201946,1.172365,-1.044968,-0.206522,-1.495000,-0.242707,-0.200576,-0.949138,-0.047713,-0.025300,-0.024541,-29.965002,-14.770426,-35.194275,,,,,,,
1504281065.300658,-0.249109,0.194533,1.153955,-1.201888,-0.246646,-1.584722,-0.241890,-0.193308,-0.950853,-0.040626,-0.080526,-0.031096,-29.515539,-14.692957,-35.418732,,,,,,,
1504281065.310668,-0.247925,0.185829,1.134643,-1.346721,-0.242207,-1.631947,-0.241168,-0.184761,-0.952734,-0.049344,-0.109809,-0.025538,-29.515539,-14.692957,-35.418732,,,,,,,
1504281065.320677,-0.246717,0.175786,1.114770,-1.485272,-0.234654,-1.650346,-0.240458,-0.174882,-0.954775,-0.046468,-0.096114,-0.021848,-29.515539,-14.692957,-35.418732,,,,,,,
1504281065.330687,-0.245752,0.164425,1.094749,-1.611415,-0.250688,-1.627053,-0.240005,-0.163685,-0.956872,-0.033021,-0.077297,-0.029883,-29.066595,-14.540033,-35.868774,,,,,,,
1504281065.340697,-0.245473,0.151892,1.074924,-1.712340,-0.299990,-1.579108,-0.240217,-0.151309,-0.958854,-0.038088,-0.073209,-0.041939,-29.066595,-14.540033,-35.868774,,,,,,,
1504281065.350707,-0.246508,0.139055,1.055996,-1.673275,-0.417640,-1.471025,-0.241663,-0.138608,-0.960410,-0.032659,-0.062946,-0.047662,-28.991751,-14.614252,-36.093048,,,,,,,
1504281065.360716,-0.251809,0.129250,1.040140,-1.192015,-0.925883,-1.229130,-0.247078,-0.128891,-0.960385,0.029320,-0.063416,-0.096240,-28.991751,-14.614252,-36.093048,,,,,,,
1504281065.370726,-0.264461,0.124585,1.027321,-0.656638,-1.525059,-1.073439,-0.259363,-0.124263,-0.957752,0.159891,-0.078236,-0.343914,-29.068319,-14.163996,-36.396606,,,,,,,
1504281065.380736,-0.278470,0.123767,1.017014,-0.250875,-1.518975,-0.914771,-0.272782,-0.123452,-0.954122,0.155259,-0.098365,-0.427561,-29.068319,-14.163996,-36.396606,,,,,,,
1504281065.390746,-0.292204,0.125905,1.009237,0.054262,-1.433188,-0.775632,-0.285783,-0.125573,-0.950031,0.125306,-0.110130,-0.233181,-29.742193,-14.168528,-35.648224,,,,,,,
1504281065.400755,-0.305312,0.129785,1.002193,0.186941,-1.399094,-0.796810,-0.298062,-0.129421,-0.945732,0.113935,-0.095524,-0.144188,-29.742193,-14.168528,-35.648224,,,,,,,
1504281065.410765,-0.318281,0.134551,0.994187,0.213210,-1.406618,-0.941918,-0.310106,-0.134145,-0.941190,0.102266,-0.029581,-0.056155,-30.264029,-15.072077,-35.042755,,,,,,,
1504281065.420775,-0.331833,0.139655,0.984414,0.154541,-1.516771,-1.121149,-0.322605,-0.139202,-0.936242,0.100559,-0.001148,0.010674,-30.264029,-15.072077,-35.042755,,,,,,,
1504281065.430785,-0.345876,0.142441,0.973503,-0.220425,-1.552083,-1.083310,-0.335588,-0.141960,-0.931251,0.088121,-0.033745,0.014945,-31.086340,-15.602579,-34.140839,,,,,,,
1504281065.440795,-0.358688,0.141817,0.961962,-0.514403,-1.460201,-1.035948,-0.347522,-0.141342,-0.926958,0.091983,-0.043426,0.095461,-31.086340,-15.602579,-34.140839,,,,,,,
1504281065.450804,-0.372957,0.138925,0.950263,-0.730448,-1.606628,-0.951740,-0.360860,-0.138478,-0.922282,0.042958,-0.115169,0.139369,-31.685369,-15.681330,-33.616760,,,,,,,
1504281065.460814,-0.389144,0.135329,0.940183,-0.660754,-1.826944,-0.731345,-0.375928,-0.134917,-0.916775,0.081677,-0.041094,0.042263,-32.583366,-15.987024,-32.791718,,,,,,,
1504281065.470824,-0.408510,0.133052,0.933276,-0.413249,-2.076458,-0.483907,-0.393732,-0.132659,-0.909603,0.129800,0.037231,-0.057347,-32.583366,-15.987024,-32.791718,,,,,,,
1504281065.480834,-0.428932,0.132335,0.929418,-0.173140,-2.073326,-0.274285,-0.412263,-0.131949,-0.901459,0.158800,0.004874,-0.137054,-32.583366,-15.987024,-32.791718,,,,,,,
1504281065.490826,-0.447474,0.132255,0.927087,-0.106382,-1.812888,-0.192439,-0.428911,-0.131870,-0.893670,0.172350,-0.082730,-0.072227,-33.631508,-16.143686,-31.818146,,,,,,,
1504281065.500836,-0.462340,0.132152,0.924873,-0.103223,-1.418641,-0.194196,-0.442154,-0.131768,-0.887207,0.119065,-0.202949,0.087586,-33.631508,-16.143686,-31.818146,,,,,,,
1504281065.510846,-0.473635,0.132415,0.922933,-0.048251,-1.070661,-0.176569,-0.452131,-0.132028,-0.882126,0.105101,-0.205847,0.200546,-34.755028,-16.150690,-30.845917,,,,,,,
1504281065.520856,-0.481966,0.132981,0.921764,0.012420,-0.781385,-0.111862,-0.459430,-0.132590,-0.878262,0.099658,-0.124109,0.201306,-34.755028,-16.150690,-30.845917,,,,,,,
1504281065.530865,-0.488254,0.133711,0.921098,0.037266,-0.598325,-0.093996,-0.464898,-0.133313,-0.875270,0.061379,-0.033130,0.143413,-35.128487,-16.453424,-30.319550,,,,,,,
1504281065.540875,-0.493535,0.134563,0.919893,0.008250,-0.536206,-0.166739,-0.469460,-0.134157,-0.872702,-0.006493,0.031191,0.062415,-35.578178,-16.306330,-29.871826,,,,,,,
1504281065.550885,-0.498948,0.135546,0.917571,-0.034303,-0.591149,-0.279861,-0.474113,-0.135131,-0.870032,-0.050026,0.088668,0.000083,-35.578178,-16.306330,-29.871826,,,,,,,
1504281065.560864,-0.505516,0.136230,0.913954,-0.074195,-0.724948,-0.412053,-0.479773,-0.135809,-0.866818,-0.057291,0.098319,-0.037479,-36.177467,-16.459482,-29.647156,,,,,,,
1504281065.570874,-0.512999,0.137661,0.908820,-0.141711,-0.846795,-0.547515,-0.486149,-0.137227,-0.863034,-0.033062,0.068272,-0.052798,-36.177467,-16.459482,-29.647156,,,,,,,
1504281065.580884,-0.521168,0.138931,0.902099,-0.246261,-0.921465,-0.669248,-0.493096,-0.138485,-0.858882,0.006478,0.011822,-0.024770,-36.551414,-16.612070,-29.196930,,,,,,,
1504281065.590894,-0.529917,0.140255,0.894495,-0.257394,-1.014023,-0.724609,-0.500499,-0.139795,-0.854376,0.040400,-0.047964,0.025961,-36.551414,-16.612070,-29.196930,,,,,,,
1504281065.600904,-0.539909,0.141958,0.886992,-0.230592,-1.129332,-0.721157,-0.508887,-0.141482,-0.849127,0.097205,-0.069684,0.014151,-36.698921,-17.288782,-28.667236,,,,,,,
1504281065.610914,-0.550889,0.143495,0.879962,-0.228647,-1.233865,-0.636645,-0.518065,-0.143003,-0.843302,0.127639,-0.084033,0.013132,-36.698921,-17.288782,-28.667236,,,,,,,
1504281065.620924,-0.563389,0.144435,0.873664,-0.263101,-1.368974,-0.576692,-0.528493,-0.143934,-0.836647,0.060857,-0.110949,0.049751,-37.371727,-17.668467,-27.841064,,,,,,,
1504281065.630933,-0.577534,0.144814,0.866981,-0.344589,-1.561162,-0.590370,-0.540245,-0.144308,-0.829042,0.049461,-0.063547,0.057527,-37.371727,-17.668467,-27.841064,,,,,,,
1504281065.640942,-0.593633,0.145283,0.858821,-0.425626,-1.784111,-0.743824,-0.553483,-0.144772,-0.820181,0.079561,0.038052,0.050482,-37.371727,-17.668467,-27.841064,,,,,,,
1504281065.650952,-0.612015,0.146652,0.848540,-0.477851,-2.056232,-0.977195,-0.568351,-0.146127,-0.809706,0.113563,0.113016,0.037215,-38.045753,-17.523294,-26.943817,,,,,,,
1504281065.660962,-0.632659,0.149309,0.835883,-0.521285,-2.312414,-1.236198,-0.584713,-0.148755,-0.797485,0.189861,0.132535,0.023880,-38.492805,-17.977716,-25.741547,,,,,,,
1504281065.670972,-0.655617,0.153790,0.820999,-0.527411,-2.584868,-1.514320,-0.602453,-0.153184,-0.783316,0.257147,0.092012,0.039313,-38.492805,-17.977716,-25.741547,,,,,,,
1504281065.680981,-0.680999,0.160486,0.804205,-0.489008,-2.885406,-1.780574,-0.621479,-0.159798,-0.766960,0.322239,0.025109,0.063698,-39.538063,-18.885721,-24.087372,,,,,,,
1504281065.690991,-0.710016,0.169486,0.785860,-0.465593,-3.311586,-2.024217,-0.642506,-0.168676,-0.747485,0.367512,-0.021174,0.072177,-39.538063,-18.885721,-24.087372,,,,,,,
1504281065.701001,-0.743479,0.180463,0.765961,-0.490933,-3.819433,-2.249655,-0.665861,-0.179485,-0.724164,0.388258,-0.046848,0.031278,-40.281914,-20.167978,-22.129608,,,,,,,
1504281065.711011,-0.781454,0.193264,0.743990,-0.596078,-4.322325,-2.510463,-0.691200,-0.192063,-0.696674,0.417106,-0.046096,0.013996,-40.281914,-20.167978,-22.129608,,,,,,,
1504281065.721020,-0.823302,0.208064,0.719878,-0.689092,-4.775234,-2.770272,-0.717577,-0.206566,-0.665141,0.446337,-0.033729,0.025874,-41.098183,-21.902536,-19.193634,,,,,,,
1504281065.731030,-0.868491,0.224599,0.694587,-0.775581,-5.135618,-2.906414,-0.744182,-0.222715,-0.629754,0.474132,0.003874,0.033029,-41.098183,-21.902536,-19.193634,,,,,,,
1504281065.741040,-0.914840,0.242174,0.668366,-0.919080,-5.248377,-2.981182,-0.769340,-0.239813,-0.592119,0.423744,0.004553,0.087893,-41.838310,-23.862497,-15.880768,,,,,,,
1504281065.751050,-0.960498,0.260455,0.641588,-1.034920,-5.210096,-3.011338,-0.791839,-0.257520,-0.553782,0.430114,0.011381,0.146876,-41.838310,-23.862497,-15.880768,,,,,,,
1504281065.761060,-1.004243,0.279656,0.614538,-1.124041,-5.039888,-3.053421,-0.810976,-0.276025,-0.515876,0.450762,0.041345,0.149589,-41.379509,-25.666147,-13.016083,,,,,,,
1504281065.771069,-1.044899,0.300179,0.587241,-1.180170,-4.768683,-3.130849,-0.826200,-0.295692,-0.479542,0.458997,0.050056,0.187550,-41.379509,-25.666147,-13.016083,,,,,,,
1504281065.781079,-1.081595,0.322091,0.559453,-1.281494,-4.419305,-3.220235,-0.837316,-0.316551,-0.445755,0.450963,0.021140,0.233933,-40.844826,-27.769632,-10.074005,,,,,,,
1504281065.791089,-1.112796,0.344877,0.530116,-1.465269,-3.974408,-3.311000,-0.844124,-0.338081,-0.416120,0.403389,-0.000893,0.217893,-40.844826,-27.769632,-10.074005,,,,,,,
1504281065.801099,-1.138943,0.368311,0.499745,-1.600557,-3.566203,-3.341841,-0.847285,-0.360041,-0.390485,0.337581,0.064249,0.097531,-39.787682,-29.717905,-8.556732,,,,,,,
1504281065.811108,-1.159744,0.391608,0.467706,-1.813026,-3.178715,-3.333286,-0.847304,-0.381675,-0.369325,0.304930,0.065864,0.081819,-39.787682,-29.717905,-8.556732,,,,,,,
1504281065.821118,-1.177269,0.414491,0.434309,-1.962651,-3.053911,-3.296407,-0.845356,-0.402724,-0.350979,0.283039,0.071669,0.103878,-37.981148,-31.736765,-7.562073,,,,,,,
1504281065.831128,-1.194763,0.437200,0.399876,-2.078277,-3.220286,-3.269629,-0.842641,-0.423404,-0.332693,0.276830,0.111789,0.063527,-37.981148,-31.736765,-7.562073,,,,,,,
1504281065.841138,-1.214650,0.459443,0.365668,-2.067852,-3.570024,-3.138771,-0.840055,-0.443449,-0.312508,0.267392,0.060163,0.072716,-36.476067,-33.530785,-7.169861,,,,,,,
1504281065.851147,-1.239065,0.480792,0.332931,-2.007477,-4.039585,-2.946773,-0.838290,-0.462481,-0.288758,0.253909,-0.025418,0.107545,-36.476067,-33.530785,-7.169861,,,,,,,
1504281065.861157,-1.268557,0.501555,0.301727,-1.948239,-4.543192,-2.795279,-0.837091,-0.480790,-0.260998,0.243372,-0.063384,0.135281,-34.820244,-35.175606,-6.028381,,,,,,,
1504281065.871167,-1.303148,0.522165,0.271983,-1.893983,-5.020091,-2.671592,-0.835882,-0.498758,-0.229222,0.225622,-0.072577,0.156239,-34.820244,-35.175606,-6.028381,,,,,,,
1504281065.881177,-1.341788,0.543294,0.242786,-1.923988,-5.438622,-2.674108,-0.833662,-0.516958,-0.194325,0.225263,-0.063669,0.160755,-33.239723,-36.521385,-4.589325,,,,,,,
1504281065.891156,-1.383532,0.565868,0.213762,-1.952031,-5.777194,-2.727998,-0.829366,-0.536149,-0.157152,0.207341,-0.059127,0.158632,-33.239723,-36.521385,-4.589325,,,,,,,
1504281065.901166,-1.427617,0.589578,0.185310,-1.968794,-6.000840,-2.720160,-0.822670,-0.556010,-0.118601,0.196633,-0.037343,0.138026,-31.584204,-37.866814,-3.150085,,,,,,,
1504281065.911175,-1.471647,0.613591,0.156830,-2.060940,-6.002291,-2.644532,-0.813570,-0.575808,-0.080931,0.207872,-0.027174,0.127333,-31.584204,-37.866814,-3.150085,,,,,,,
1504281065.921185,-1.514731,0.637737,0.128671,-2.089576,-5.929680,-2.562520,-0.802183,-0.595379,-0.045021,0.199354,-0.034809,0.139534,-30.303564,-39.214073,-1.636810,,,,,,,
1504281065.931195,-1.555784,0.662187,0.101696,-2.055528,-5.638047,-2.504268,-0.788561,-0.614843,-0.011839,0.174196,-0.000864,0.132734,-30.303564,-39.214073,-1.636810,,,,,,,
1504281065.941206,-1.592256,0.687154,0.076408,-1.940134,-5.073181,-2.487985,-0.772876,-0.634340,0.016588,0.106220,-0.012389,0.213545,-28.425192,-40.107140,-0.875397,,,,,,,
1504281065.951216,-1.623643,0.712212,0.052895,-1.887966,-4.511044,-2.420573,-0.755861,-0.653510,0.039982,0.032610,-0.147851,0.313717,-28.425192,-40.107140,-0.875397,,,,,,,
1504281065.961224,-1.650006,0.738540,0.031488,-1.709803,-3.920978,-2.541921,-0.737134,-0.673209,0.058511,-0.005221,-0.221933,0.312354,-26.321890,-41.372856,-0.785675,,,,,,,
1504281065.971234,-1.673088,0.764894,0.013485,-1.497945,-3.398525,-2.467757,-0.717685,-0.692460,0.073671,-0.044339,0.024827,0.282851,-26.321890,-41.372856,-0.785675,,,,,,,
1504281065.981244,-1.693396,0.788634,-0.000970,-1.221598,-2.935459,-2.155346,-0.699525,-0.709391,0.086194,-0.066680,0.033854,0.296863,-24.219381,-42.413277,-0.847595,,,,,,,
1504281065.991254,-1.712120,0.809312,-0.012333,-1.006940,-2.608237,-1.885498,-0.683118,-0.723813,0.097189,-0.082523,-0.045307,0.308008,-24.219381,-42.413277,-0.847595,,,,,,,
1504281066.001263,-1.730392,0.828030,-0.021011,-0.824846,-2.419161,-1.725405,-0.667733,-0.736601,0.107481,-0.089317,0.038755,0.277971,-22.567175,-43.156303,-0.612885,,,,,,,
1504281066.011273,-1.748557,0.845629,-0.027680,-0.703610,-2.283848,-1.643244,-0.652809,-0.748388,0.117282,-0.102440,0.027991,0.266767,-22.567175,-43.156303,-0.612885,,,,,,,
1504281066.021283,-1.767803,0.862692,-0.032059,-0.560520,-2.252021,-1.616367,-0.637815,-0.759596,0.127305,-0.115115,-0.020128,0.271163,-21.289877,-43.975883,-0.453552,,,,,,,
1504281066.031293,-1.789438,0.879185,-0.033541,-0.392359,-2.283277,-1.582931,-0.622595,-0.770220,0.138337,-0.121896,-0.021117,0.248992,-21.289877,-43.975883,-0.453552,,,,,,,
1504281066.041302,-1.813935,0.894832,-0.031767,-0.197579,-2.312636,-1.535576,-0.607247,-0.780104,0.150625,-0.128303,-0.033128,0.231531,-19.864157,-44.269478,-0.447784,,,,,,,
1504281066.051312,-1.841335,0.909282,-0.025953,0.045763,-2.262493,-1.471199,-0.591968,-0.789063,0.164175,-0.145154,-0.062774,0.227243,-19.864157,-44.269478,-0.447784,,,,,,,
1504281066.061322,-1.871372,0.922197,-0.015605,0.301311,-2.146395,-1.395175,-0.576988,-0.796931,0.178847,-0.162026,-0.071218,0.231386,-18.810766,-45.166252,0.311584,,,,,,,
1504281066.071332,-1.902875,0.933029,-0.001767,0.492653,-2.012787,-1.253114,-0.562875,-0.803427,0.194107,-0.174506,-0.069193,0.227540,-18.810766,-45.166252,0.311584,,,,,,,
1504281066.081342,-1.936189,0.942445,0.014786,0.636542,-2.001235,-1.204852,-0.549006,-0.808998,0.210035,-0.175389,-0.061821,0.201693,-17.834570,-45.238213,0.989563,,,,,,,
1504281066.091352,-1.970733,0.950390,0.032443,0.656052,-2.026022,-1.091630,-0.535488,-0.813642,0.226360,-0.192891,0.004896,0.143787,-17.834570,-45.238213,0.989563,,,,,,,
1504281066.101362,-2.005499,0.957400,0.049887,0.630985,-2.062096,-1.043577,-0.522110,-0.817697,0.242429,-0.190979,-0.023733,0.127276,-17.007544,-45.461449,1.968323,,,,,,,
1504281066.111372,-2.040209,0.964458,0.067307,0.570694,-2.021065,-1.083248,-0.508223,-0.821740,0.257784,-0.199602,-0.014914,0.122800,-17.007544,-45.461449,1.968323,,,,,,,
1504281066.121382,-2.073556,0.972240,0.084823,0.495813,-1.836004,-1.175500,-0.493727,-0.826150,0.271496,-0.213091,-0.034858,0.148593,-15.804174,-46.133308,3.101349,,,,,,,
1504281066.131390,-2.104819,0.980891,0.103047,0.446478,-1.534986,-1.283924,-0.478829,-0.830993,0.283148,-0.226829,-0.062195,0.189966,-15.804174,-46.133308,3.101349,,,,,,,
1504281066.141400,-2.133904,0.990263,0.122709,0.436025,-1.173552,-1.390252,-0.463787,-0.836170,0.292782,-0.237889,-0.073483,0.213336,-14.603079,-46.204109,3.704895,,,,,,,
1504281066.151410,-2.161008,0.999745,0.144108,0.467741,-0.837037,-1.434554,-0.449074,-0.841333,0.300817,-0.241081,-0.077459,0.229227,-14.603079,-46.204109,3.704895,,,,,,,
1504281066.161420,-2.187542,1.008509,0.167132,0.538165,-0.689521,-1.413345,-0.434903,-0.846038,0.308350,-0.240375,-0.091691,0.229080,-13.176931,-46.348747,4.234528,,,,,,,
1504281066.171429,-2.215709,1.016341,0.191947,0.616741,-0.730671,-1.403529,-0.420738,-0.850188,0.316482,-0.241265,-0.104662,0.189484,-13.176931,-46.348747,4.234528,,,,,,,
1504281066.181439,-2.246804,1.023341,0.218583,0.693485,-0.876221,-1.407409,-0.406043,-0.853852,0.325678,-0.255014,-0.133651,0.166158,-11.975592,-46.345146,5.137512,,,,,,,
1504281066.191449,-2.281433,1.029037,0.247769,0.838690,-0.991445,-1.398415,-0.390831,-0.856803,0.336363,-0.275612,-0.170129,0.164110,-11.975592,-46.345146,5.137512,,,,,,,
1504281066.201459,-2.318799,1.032743,0.279598,1.017643,-0.999360,-1.352193,-0.375662,-0.858708,0.348567,-0.296793,-0.187496,0.178716,-11.148703,-46.642937,5.891785,,,,,,,
1504281066.211438,-2.357476,1.034089,0.313774,1.214492,-0.898741,-1.297592,-0.361087,-0.859397,0.362013,-0.314023,-0.203988,0.194459,-11.148703,-46.642937,5.891785,,,,,,,
1504281066.221448,-2.396112,1.033014,0.349649,1.387261,-0.733998,-1.232471,-0.347460,-0.858847,0.376369,-0.322279,-0.195886,0.189488,-9.721762,-46.788628,6.946503,,,,,,,
1504281066.231457,-2.433102,1.029719,0.385697,1.500174,-0.565594,-1.139708,-0.335143,-0.857154,0.391108,-0.324876,-0.191140,0.163626,-9.721762,-46.788628,6.946503,,,,,,,
1504281066.241467,-2.467811,1.024558,0.420491,1.552596,-0.476634,-1.025562,-0.324125,-0.854485,0.405954,-0.331728,-0.190620,0.118704,-8.444357,-46.711327,8.674072,,,,,,,
1504281066.251477,-2.499975,1.017830,0.452543,1.552778,-0.492777,-0.873962,-0.314336,-0.850970,0.420764,-0.345896,-0.202100,0.057172,-8.444357,-46.711327,8.674072,,,,,,,
1504281066.261487,-2.529536,1.009887,0.481040,1.512028,-0.552281,-0.713818,-0.305637,-0.846772,0.435389,-0.362301,-0.225952,-0.000697,-7.692221,-46.710793,10.100983,,,,,,,
1504281066.271497,-2.556031,1.001170,0.505443,1.436165,-0.594455,-0.545225,-0.298063,-0.842103,0.449468,-0.378100,-0.238769,-0.041021,-7.692221,-46.710793,10.100983,,,,,,,
1504281066.281506,-2.578695,0.991774,0.525588,1.361912,-0.558871,-0.360756,-0.292010,-0.836998,0.462779,-0.393124,-0.248665,-0.058543,-6.866293,-46.185081,11.599091,,,,,,,
1504281066.291516,-2.596465,0.981983,0.541318,1.262826,-0.427176,-0.177567,-0.287977,-0.831600,0.474879,-0.395953,-0.249241,-0.058390,-6.866293,-46.185081,11.599091,,,,,,,
1504281066.301526,-2.609226,0.971919,0.552969,1.174471,-0.271021,0.001433,-0.286127,-0.825969,0.485702,-0.377829,-0.240407,-0.054107,-6.864981,-46.037315,12.722961,,,,,,,
1504281066.311536,-2.617676,0.961916,0.560327,1.017793,-0.264602,0.193283,-0.286132,-0.820289,0.495232,-0.345490,-0.218850,-0.063301,-6.864981,-46.037315,12.722961,,,,,,,
1504281066.321545,-2.623101,0.955028,0.560820,0.477804,-0.584256,0.346617,-0.286234,-0.816330,0.501672,-0.316335,-0.233154,-0.195947,-7.089300,-45.814964,13.545746,,,,,,,
1504281066.331555,-2.626588,0.952357,0.555617,-0.049269,-0.815473,0.404818,-0.285556,-0.814784,0.504564,-0.270398,-0.313436,-0.580171,-7.089300,-45.814964,13.545746,,,,,,,
1504281066.341565,-2.627955,0.953543,0.546227,-0.470492,-0.915378,0.414939,-0.284391,-0.815471,0.504111,-0.138521,-0.362828,-0.647239,-7.088278,-46.040565,13.847443,,,,,,,
1504281066.351575,-2.627304,0.957221,0.534997,-0.674157,-0.794307,0.370609,-0.283242,-0.817594,0.501312,-0.067847,-0.356203,-0.598830,-7.088278,-46.040565,13.847443,,,,,,,
1504281066.361584,-2.623749,0.961580,0.524074,-0.677512,-0.447902,0.314487,-0.283256,-0.820096,0.497200,-0.051858,-0.301379,-0.368385,-7.314672,-45.890236,13.170715,,,,,,,
1504281066.371594,-2.617740,0.965881,0.514543,-0.639133,-0.100750,0.234954,-0.284471,-0.822550,0.492430,-0.034758,-0.221441,-0.075956,-7.314672,-45.890236,13.170715,,,,,,,
1504281066.381604,-2.611197,0.970192,0.506913,-0.566970,0.054339,0.133402,-0.285891,-0.824994,0.487494,-0.022413,-0.133700,0.032891,-7.314596,-46.189339,12.722992,,,,,,,
1504281066.391614,-2.605268,0.974051,0.501175,-0.463686,0.121753,0.069418,-0.287147,-0.827169,0.483051,-0.002221,-0.079569,0.026532,-7.314596,-46.189339,12.722992,,,,,,,
1504281066.401623,-2.600849,0.976973,0.497081,-0.335778,0.087697,0.039813,-0.288034,-0.828807,0.479703,0.014093,-0.079457,0.012225,-7.465643,-46.039116,12.271484,,,,,,,
1504281066.411633,-2.598481,0.978887,0.494638,-0.202748,0.026959,0.010263,-0.288348,-0.829877,0.477661,-0.004651,-0.058078,-0.035369,-7.465643,-46.039116,12.271484,,,,,,,
1504281066.421643,-2.597599,0.979875,0.493795,-0.073625,0.012072,-0.018307,-0.288345,-0.830428,0.476704,-0.034119,-0.009950,-0.055622,-7.390310,-46.263481,12.123352,,,,,,,
1504281066.431653,-2.597476,0.980190,0.494319,0.008010,0.062579,-0.047074,-0.288268,-0.830603,0.476445,-0.049790,0.036536,-0.030781,-7.390310,-46.263481,12.123352,,,,,,,
1504281066.441664,-2.597803,0.980183,0.495753,0.052083,0.087817,-0.072660,-0.288115,-0.830599,0.476544,-0.050431,0.098498,0.023059,-7.540838,-46.188713,11.897430,,,,,,,
1504281066.451672,-2.598598,0.979964,0.497728,0.078711,0.074822,-0.084333,-0.287830,-0.830477,0.476929,-0.033382,0.160403,0.060394,-7.540838,-46.188713,11.897430,,,,,,,
1504281066.461682,-2.599916,0.979724,0.499665,0.071764,0.009872,-0.078893,-0.287304,-0.830343,0.477479,-0.023380,0.217123,0.112182,-7.390539,-46.038933,12.346680,,,,,,,
1504281066.471692,-2.602424,0.979517,0.501559,0.073895,-0.126538,-0.082918,-0.286194,-0.830228,0.478345,0.006424,0.213971,0.113390,-7.390539,-46.038933,12.346680,,,,,,,
1504281066.481702,-2.606761,0.979166,0.503637,0.093742,-0.311053,-0.079356,-0.284265,-0.830033,0.479833,0.023492,0.171555,0.097011,-7.165731,-45.962914,12.346680,,,,,,,
1504281066.491702,-2.612917,0.978891,0.505430,0.065383,-0.516490,-0.070504,-0.281421,-0.829879,0.481770,-0.013638,0.108993,0.048061,-7.165731,-45.962914,12.346680,,,,,,,
1504281066.501712,-2.620459,0.978969,0.506929,0.032164,-0.671787,-0.076692,-0.277747,-0.829923,0.483823,-0.037545,0.053708,-0.070142,-7.240316,-46.038551,12.497040,,,,,,,
1504281066.511722,-2.628979,0.979002,0.508355,0.040033,-0.751777,-0.071200,-0.273602,-0.829941,0.486148,-0.059818,0.009308,-0.162891,-7.240316,-46.038551,12.497040,,,,,,,
1504281066.521732,-2.637737,0.979465,0.509873,-0.020550,-0.742720,-0.103343,-0.269148,-0.830199,0.488189,-0.097490,0.013061,-0.206497,-7.090536,-46.037575,12.347412,,,,,,,
1504281066.531711,-2.644842,0.980880,0.510455,-0.133876,-0.630976,-0.091995,-0.265113,-0.830987,0.489056,-0.071389,0.058343,-0.225689,-7.090536,-46.037575,12.347412,,,,,,,
1504281066.541721,-2.649118,0.982955,0.509895,-0.221853,-0.408634,-0.065855,-0.262203,-0.832140,0.488664,-0.056049,0.102724,-0.164034,-6.715277,-46.185753,12.274445,,,,,,,
1504281066.551730,-2.650348,0.985831,0.508581,-0.310606,-0.174523,-0.079230,-0.260472,-0.833731,0.486874,-0.068080,0.167472,-0.040982,-6.715277,-46.185753,12.274445,,,,,,,
1504281066.561740,-2.650047,0.989558,0.507754,-0.353597,0.003868,-0.158607,-0.259150,-0.835783,0.484053,-0.042516,0.172056,0.026811,-6.489645,-46.484581,12.202271,,,,,,,
1504281066.571750,-2.649432,0.993464,0.508809,-0.296133,0.192106,-0.254906,-0.257903,-0.837922,0.481013,-0.022614,0.107133,0.062261,-6.489645,-46.484581,12.202271,,,,,,,
1504281066.581760,-2.649120,0.996908,0.511391,-0.215435,0.252222,-0.294366,-0.256687,-0.839796,0.478387,0.002689,0.044279,0.081275,-6.415197,-46.483498,11.827454,,,,,,,
1504281066.591770,-2.650214,1.000262,0.514553,-0.225014,0.108467,-0.315477,-0.254833,-0.841612,0.476181,0.008572,-0.041322,0.002762,-6.415197,-46.483498,11.827454,,,,,,,
1504281066.601779,-2.653687,1.004494,0.517521,-0.326331,-0.173049,-0.347178,-0.251506,-0.843890,0.473913,0.008327,-0.139249,-0.146597,-5.815664,-46.480202,11.528900,,,,,,,
1504281066.611789,-2.660057,1.009557,0.520244,-0.391658,-0.483645,-0.368092,-0.246500,-0.846596,0.471712,-0.000051,-0.192604,-0.231813,-5.815664,-46.480202,11.528900,,,,,,,
1504281066.621799,-2.669506,1.014823,0.523528,-0.383686,-0.712772,-0.408235,-0.240001,-0.849387,0.470043,-0.013111,-0.209054,-0.179928,-5.590887,-46.478905,11.379456,,,,,,,
1504281066.631809,-2.681592,1.019964,0.528087,-0.329345,-0.880477,-0.448406,-0.232361,-0.852089,0.468990,-0.012893,-0.181938,-0.054440,-5.590887,-46.478905,11.379456,,,,,,,
1504281066.641818,-2.695523,1.024596,0.533170,-0.291821,-0.985225,-0.438550,-0.224100,-0.854504,0.468616,-0.018514,-0.168811,0.032589,-5.290548,-46.702248,11.231903,,,,,,,
1504281066.651828,-2.710412,1.028935,0.538716,-0.266403,-1.014197,-0.446994,-0.215547,-0.856750,0.468529,-0.020736,-0.147095,0.080849,-5.290548,-46.702248,11.231903,,,,,,,
1504281066.661838,-2.725023,1.033315,0.544378,-0.284107,-0.956514,-0.441790,-0.207158,-0.859001,0.468191,-0.029369,-0.095940,0.083597,-4.391531,-46.622154,10.708557,,,,,,,
1504281066.671848,-2.738656,1.037989,0.549603,-0.338162,-0.901739,-0.425969,-0.199180,-0.861384,0.467274,-0.025964,-0.064977,0.041912,-4.391531,-46.622154,10.708557,,,,,,,
1504281066.681857,-2.750735,1.043152,0.554402,-0.392288,-0.729736,-0.422096,-0.191824,-0.863995,0.465527,-0.027811,-0.047610,0.012622,-3.642599,-46.467888,10.259277,,,,,,,
1504281066.691867,-2.759794,1.048432,0.559285,-0.398095,-0.391887,-0.428039,-0.185897,-0.866642,0.463005,-0.050569,-0.023205,0.084099,-3.642599,-46.467888,10.259277,,,,,,,
1504281066.701877,-2.765502,1.053905,0.564287,-0.430613,-0.058082,-0.432954,-0.181506,-0.869360,0.459641,-0.052838,0.003454,0.182999,-2.966879,-46.839561,10.113739,,,,,,,
1504281066.711887,-2.768322,1.060370,0.568563,-0.564618,0.129501,-0.432449,-0.178155,-0.872536,0.454908,-0.030249,0.026253,0.174533,-2.966879,-46.839561,10.113739,,,,,,,
1504281066.721896,-2.768999,1.068267,0.571617,-0.717563,0.223456,-0.421139,-0.175334,-0.876367,0.448596,-0.023351,0.035898,0.120251,-2.592932,-46.686974,9.663513,,,,,,,
1504281066.731906,-2.767960,1.077307,0.573233,-0.846591,0.249000,-0.394722,-0.172901,-0.880685,0.441020,-0.031033,0.023706,0.097706,-2.592932,-46.686974,9.663513,,,,,,,
1504281066.741916,-2.765887,1.087422,0.573474,-0.958935,0.220071,-0.377787,-0.170538,-0.885432,0.432352,-0.031138,-0.003851,0.079672,-2.068991,-46.757973,8.840393,,,,,,,
1504281066.751926,-2.763551,1.097987,0.573098,-0.991178,0.194756,-0.371394,-0.168085,-0.890292,0.423234,-0.051672,-0.032742,0.079802,-2.068991,-46.757973,8.840393,,,,,,,
1504281066.761936,-2.760627,1.108632,0.572240,-1.007026,0.226833,-0.351198,-0.165788,-0.895089,0.413919,-0.077025,-0.062979,0.090506,-1.844748,-46.905464,8.092041,,,,,,,
1504281066.771945,-2.756499,1.119425,0.570688,-1.028949,0.295199,-0.338547,-0.163857,-0.899850,0.404254,-0.082466,-0.072913,0.065946,-1.844748,-46.905464,8.092041,,,,,,,
1504281066.781955,-2.750603,1.130199,0.568893,-1.018949,0.481591,-0.333522,-0.162533,-0.904497,0.394295,-0.100483,-0.058775,0.055351,-1.846258,-46.978233,6.967590,,,,,,,
1504281066.791965,-2.742014,1.140129,0.567040,-0.913381,0.763069,-0.298611,-0.162411,-0.908687,0.384590,-0.120441,-0.075337,0.103081,-1.846258,-46.978233,6.967590,,,,,,,
1504281066.801975,-2.731296,1.148398,0.565453,-0.743428,0.961958,-0.255971,-0.163521,-0.912108,0.375924,-0.091209,-0.092515,0.103888,-1.171896,-47.123848,6.295349,,,,,,,
1504281066.811984,-2.720638,1.154990,0.564133,-0.587273,0.911595,-0.199039,-0.165058,-0.914791,0.368665,-0.013241,-0.097264,-0.001828,-1.171896,-47.123848,6.295349,,,,,,,
1504281066.821994,-2.711438,1.159603,0.561522,-0.417776,0.585038,-0.050868,-0.166681,-0.916645,0.363291,0.043786,-0.110943,-0.166742,-1.247244,-47.123741,6.070160,,,,,,,
1504281066.832004,-2.704195,1.161752,0.555949,-0.247919,0.080449,0.168066,-0.168473,-0.917501,0.360289,0.044038,-0.122126,-0.297972,-1.247244,-47.123741,6.070160,,,,,,,
1504281066.842014,-2.698270,1.161284,0.546240,-0.079323,-0.410340,0.447816,-0.170789,-0.917315,0.359672,0.012037,-0.112043,-0.328850,-1.246969,-47.497841,5.622986,,,,,,,
1504281066.851993,-2.698685,1.159339,0.539597,0.098561,-0.706766,0.245840,-0.171404,-0.916539,0.361354,-0.048124,-0.064037,-0.253597,-1.246969,-47.497841,5.622986,,,,,,,
1504281066.862003,-2.701278,1.156214,0.533853,0.235632,-0.829509,0.376517,-0.171687,-0.915285,0.364387,0.323634,0.046724,-0.150932,-1.847342,-47.350533,5.620392,,,,,,,
1504281066.872012,-2.702878,1.151241,0.526631,0.347141,-0.814577,0.504773,-0.173035,-0.913270,0.368778,0.397201,-0.011931,-0.148837,-1.847342,-47.350533,5.620392,,,,,,,
1504281066.882022,-2.702769,1.144875,0.517962,0.458984,-0.766599,0.619094,-0.175541,-0.910659,0.374014,0.087132,-0.025682,-0.089803,-1.921133,-47.651466,5.922424,,,,,,,
1504281066.892032,-2.700969,1.136836,0.508423,0.592747,-0.645277,0.734391,-0.179331,-0.907308,0.380307,0.007670,-0.093013,-0.001630,-1.921133,-47.651466,5.922424,,,,,,,
1504281066.902042,-2.697087,1.126851,0.498303,0.751346,-0.495373,0.835805,-0.184692,-0.903064,0.387768,0.023895,-0.118054,0.033115,-2.671774,-47.130730,6.366669,,,,,,,
1504281066.912051,-2.692165,1.116219,0.487629,0.752284,-0.476259,0.892345,-0.190759,-0.898447,0.395480,0.017343,-0.122473,0.034574,-2.671774,-47.130730,6.366669,,,,,,,
1504281066.922061,-2.686361,1.105720,0.475188,0.679734,-0.555671,0.978819,-0.197188,-0.893787,0.402817,0.046416,-0.096951,-0.053039,-3.720343,-47.212105,7.189636,,,,,,,
1504281066.932071,-2.679470,1.095508,0.460876,0.612981,-0.587162,1.049207,-0.204018,-0.889161,0.409596,0.025780,-0.059142,-0.061009,-3.720343,-47.212105,7.189636,,,,,,,
1504281066.942081,-2.670829,1.085420,0.445459,0.572123,-0.461138,1.100150,-0.211608,-0.884499,0.415792,-0.022569,-0.022682,0.019633,-4.695181,-46.917671,7.785004,,,,,,,
1504281066.952091,-2.659659,1.075432,0.429514,0.533241,-0.232814,1.132769,-0.220323,-0.879795,0.421210,-0.060576,0.007710,0.105752,-4.695181,-46.917671,7.785004,,,,,,,
1504281066.962100,-2.645877,1.066158,0.413306,0.417064,0.033504,1.107548,-0.229978,-0.875349,0.425293,-0.044619,0.014677,0.118439,-5.669500,-46.922951,8.232605,,,,,,,
1504281066.972110,-2.630319,1.057833,0.397926,0.365911,0.265231,1.038737,-0.240124,-0.871294,0.428004,0.000607,0.028353,0.107534,-5.669500,-46.922951,8.232605,,,,,,,
1504281066.982120,-2.614944,1.049491,0.384359,0.400077,0.368369,0.985244,-0.250320,-0.867170,0.430530,-0.023590,-0.001055,0.088238,-6.494040,-46.927269,8.530579,,,,,,,
1504281066.992130,-2.601826,1.041110,0.371786,0.397315,0.142507,0.963222,-0.259672,-0.862966,0.433429,-0.067888,-0.067241,0.036893,-6.494040,-46.927269,8.530579,,,,,,,
1504281067.002139,-2.592474,1.033045,0.359300,0.345194,-0.238547,0.962737,-0.267339,-0.858862,0.436904,-0.118037,-0.043634,-0.053298,-6.494040,-46.927269,8.530579,,,,,,,
1504281067.012149,-2.585973,1.025831,0.346410,0.231120,-0.513566,0.932069,-0.273434,-0.855145,0.440409,-0.101093,0.036435,-0.094019,-7.693655,-46.858406,8.902069,,,,,,,
1504281067.022159,-2.580162,1.020261,0.333307,0.070374,-0.521743,0.846413,-0.278520,-0.852245,0.442838,-0.033202,0.131801,-0.104322,-7.693655,-46.858406,8.902069,,,,,,,
1504281067.032169,-2.573278,1.016768,0.320979,-0.093456,-0.292193,0.689883,-0.283163,-0.850412,0.443417,0.039175,0.241052,-0.062176,-8.443762,-46.637367,9.198547,,,,,,,
1504281067.042178,-2.564837,1.015525,0.310561,-0.212454,0.034023,0.470285,-0.287472,-0.849757,0.441896,0.109020,0.315013,0.002791,-8.443762,-46.637367,9.198547,,,,,,,
1504281067.052188,-2.555713,1.015471,0.302525,-0.231104,0.283671,0.331050,-0.291517,-0.849729,0.439293,0.150007,0.331617,0.058678,-9.043264,-46.790215,9.273163,,,,,,,
1504281067.062198,-2.547086,1.015833,0.295915,-0.221067,0.286871,0.248871,-0.295124,-0.849920,0.436507,0.084140,0.291463,0.109254,-9.043264,-46.790215,9.273163,,,,,,,
1504281067.072208,-2.540117,1.016863,0.289713,-0.291460,0.126595,0.200999,-0.297663,-0.850462,0.433718,-0.008108,0.261961,0.058668,-9.718710,-46.792656,8.971527,,,,,,,
1504281067.082218,-2.534942,1.018998,0.283286,-0.385596,-0.076095,0.139284,-0.298867,-0.851583,0.430679,-0.031134,0.221502,-0.040328,-9.718710,-46.792656,8.971527,,,,,,,
1504281067.092227,-2.531041,1.022305,0.277161,-0.472124,-0.144554,0.050660,-0.298929,-0.853312,0.427200,-0.030051,0.172892,-0.138794,-9.869207,-46.867439,8.521698,,,,,,,
1504281067.102237,-2.527753,1.026691,0.272042,-0.523317,-0.081141,-0.065887,-0.298173,-0.855591,0.423151,-0.025298,0.112839,-0.181681,-9.869207,-46.867439,8.521698,,,,,,,
1504281067.112247,-2.523941,1.031844,0.268104,-0.531163,0.085246,-0.151586,-0.297227,-0.858247,0.418412,-0.041076,0.072740,-0.143754,-9.869543,-46.866982,8.296692,,,,,,,
1504281067.122257,-2.520631,1.037189,0.266389,-0.472160,0.185050,-0.270142,-0.295937,-0.860978,0.413689,-0.038871,0.014618,-0.029411,-9.869543,-46.866982,8.296692,,,,,,,
1504281067.132266,-2.520491,1.042762,0.266887,-0.428342,0.003632,-0.361542,-0.293199,-0.863799,0.409739,-0.012206,-0.044328,0.024786,-9.795477,-46.940147,7.547394,,,,,,,
1504281067.142276,-2.523272,1.048335,0.268442,-0.400889,-0.186237,-0.394249,-0.289263,-0.866593,0.406624,-0.067961,-0.125152,-0.038307,-9.795477,-46.940147,7.547394,,,,,,,
1504281067.152286,-2.527866,1.053315,0.270819,-0.314050,-0.259426,-0.381161,-0.284903,-0.869068,0.404415,-0.134745,-0.196484,-0.065059,-9.495260,-47.163353,7.324860,,,,,,,
1504281067.162296,-2.532950,1.057720,0.273980,-0.262508,-0.218292,-0.381144,-0.280651,-0.871239,0.402713,-0.137455,-0.237846,-0.062290,-9.495260,-47.163353,7.324860,,,,,,,
1504281067.172305,-2.537757,1.061834,0.277241,-0.245376,-0.196080,-0.357671,-0.276675,-0.873250,0.401104,-0.101743,-0.210673,-0.046872,-9.270819,-47.161598,6.950409,,,,,,,
1504281067.182285,-2.541895,1.065915,0.279465,-0.288616,-0.233075,-0.304310,-0.272999,-0.875232,0.399300,-0.071850,-0.141187,-0.018868,-9.270819,-47.161598,6.950409,,,,,,,
1504281067.192294,-2.545302,1.070116,0.279953,-0.352596,-0.322125,-0.240220,-0.269570,-0.877256,0.397183,-0.039406,-0.065447,0.017231,-8.596472,-47.082970,6.651459,,,,,,,
1504281067.202304,-2.547082,1.074757,0.278388,-0.453035,-0.305373,-0.183851,-0.266579,-0.879474,0.394285,-0.023765,-0.033611,0.043826,-8.596472,-47.082970,6.651459,,,,,,,
1504281067.212314,-2.546180,1.080032,0.274664,-0.569859,-0.210683,-0.140457,-0.264329,-0.881973,0.390197,-0.019698,-0.039154,0.082673,-8.746008,-47.308495,6.577789,,,,,,,
1504281067.222324,-2.542378,1.086328,0.268679,-0.709100,-0.127513,-0.113093,-0.262673,-0.884923,0.384596,-0.003562,-0.042110,0.097932,-8.746008,-47.308495,6.577789,,,,,,,
1504281067.232333,-2.535694,1.093588,0.260173,-0.862447,-0.069809,-0.079303,-0.261573,-0.888280,0.377541,0.001822,-0.052058,0.083839,-8.596960,-47.381325,5.828735,,,,,,,
1504281067.242343,-2.525806,1.102323,0.249069,-1.054754,0.024494,-0.090477,-0.260801,-0.892259,0.368588,-0.007189,-0.069518,0.077243,-8.596960,-47.381325,5.828735,,,,,,,
1504281067.252353,-2.512651,1.112573,0.235311,-1.235459,0.102716,-0.100535,-0.260233,-0.896840,0.357711,-0.042013,-0.038616,0.108170,-8.372412,-47.603966,5.155975,,,,,,,
1504281067.262363,-2.496314,1.124151,0.218657,-1.405799,0.145683,-0.106242,-0.259779,-0.901901,0.345092,-0.052187,-0.013412,0.133347,-8.372412,-47.603966,5.155975,,,,,,,
1504281067.272373,-2.476705,1.137053,0.198948,-1.569676,0.187546,-0.125814,-0.259294,-0.907399,0.330747,-0.031126,0.002690,0.135592,-8.223883,-47.601357,4.181305,,,,,,,
1504281067.282382,-2.454840,1.150602,0.177415,-1.613842,0.247618,-0.159085,-0.258645,-0.913010,0.315462,-0.037239,-0.010101,0.150664,-8.223883,-47.601357,4.181305,,,,,,,
1504281067.292392,-2.429982,1.162819,0.156249,-1.414353,0.668977,-0.119989,-0.259102,-0.917925,0.300466,-0.066216,-0.061033,0.142420,-7.925573,-47.597755,3.057007,,,,,,,
1504281067.302402,-2.403093,1.172163,0.137936,-1.089069,1.099971,-0.068867,-0.261301,-0.921592,0.287036,-0.095404,-0.134575,0.206815,-7.925573,-47.597755,3.057007,,,,,,,
1504281067.312412,-2.377582,1.178773,0.122907,-0.814783,1.142414,-0.017232,-0.264317,-0.924138,0.275872,-0.070568,-0.152202,0.097526,-7.853018,-47.743690,1.183289,,,,,,,
1504281067.322421,-2.357181,1.183020,0.110682,-0.563927,0.806733,0.061715,-0.267115,-0.925752,0.267642,-0.017324,-0.135069,-0.174823,-7.853018,-47.743690,1.183289,,,,,,,
1504281067.332431,-2.344383,1.184051,0.101170,-0.242659,0.251944,0.219091,-0.269836,-0.926142,0.263535,0.013900,-0.136267,-0.352921,-7.928427,-47.892982,0.659241,,,,,,,
1504281067.342441,-2.340934,1.181228,0.095194,0.131314,-0.359796,0.414018,-0.272618,-0.925073,0.264422,-0.003169,-0.178687,-0.399142,-7.928427,-47.892982,0.659241,,,,,,,
1504281067.352451,-2.345846,1.174032,0.092291,0.519597,-0.888583,0.653654,-0.276064,-0.922316,0.270409,-0.043027,-0.215760,-0.404366,-8.228765,-47.893867,0.433472,,,,,,,
1504281067.362460,-2.356901,1.162820,0.091650,0.847570,-1.242079,0.858719,-0.280348,-0.917925,0.280745,-0.053895,-0.241422,-0.388975,-8.228765,-47.893867,0.433472,,,,,,,
1504281067.372470,-2.371729,1.148658,0.093307,1.119410,-1.338201,0.965033,-0.285175,-0.912215,0.294176,-0.043622,-0.223314,-0.326951,-8.678457,-47.746788,0.881256,,,,,,,
1504281067.382480,-2.387346,1.132663,0.097021,1.305191,-1.169266,0.994944,-0.290501,-0.905545,0.309188,0.010075,-0.168231,-0.203338,-8.678457,-47.746788,0.881256,,,,,,,
1504281067.392490,-2.401549,1.115918,0.101137,1.349010,-1.017262,1.009696,-0.296264,-0.898315,0.324435,0.096176,-0.080445,-0.071323,-9.651693,-47.604012,2.302765,,,,,,,
1504281067.402499,-2.413384,1.099352,0.103061,1.262237,-1.027260,1.064000,-0.302268,-0.890913,0.338981,0.136909,0.003935,-0.020041,-9.651693,-47.604012,2.302765,,,,,,,
1504281067.412509,-2.423365,1.082960,0.101111,1.129915,-1.222364,1.183664,-0.308439,-0.883349,0.352931,0.128248,0.057086,-0.030406,-10.400213,-47.609337,3.275909,,,,,,,
1504281067.422519,-2.431512,1.067258,0.094100,0.899824,-1.497657,1.310772,-0.314557,-0.875881,0.365905,0.111143,0.107051,-0.061965,-10.400213,-47.609337,3.275909,,,,,,,
1504281067.432529,-2.437232,1.052729,0.082558,0.690591,-1.594054,1.392769,-0.320666,-0.868778,0.377356,0.095553,0.178486,-0.086905,-11.373938,-47.316414,4.621277,,,,,,,
1504281067.442539,-2.440256,1.039001,0.068316,0.558735,-1.506708,1.443622,-0.327189,-0.861898,0.387401,0.095072,0.217321,-0.030528,-11.373938,-47.316414,4.621277,,,,,,,
1504281067.452548,-2.440204,1.025910,0.052053,0.424311,-1.341549,1.492198,-0.334462,-0.855186,0.395970,0.072407,0.216469,0.016094,-12.573126,-47.098595,5.516663,,,,,,,
1504281067.462558,-2.436540,1.013522,0.034329,0.321856,-1.065801,1.511815,-0.342750,-0.848700,0.402779,0.026389,0.197607,-0.011391,-12.573126,-47.098595,5.516663,,,,,,,
1504281067.472568,-2.428923,1.001497,0.016774,0.305544,-0.589311,1.481059,-0.352456,-0.842279,0.407849,0.006722,0.166620,0.029926,-13.848242,-46.655663,6.185150,,,,,,,
1504281067.482578,-2.417355,0.989796,0.001240,0.331049,-0.000136,1.375459,-0.363656,-0.835914,0.411099,0.022316,0.177726,0.144840,-13.848242,-46.655663,6.185150,,,,,,,
1504281067.492569,-2.402340,0.978575,-0.011969,0.350692,0.523021,1.269965,-0.376083,-0.829703,0.412498,0.069412,0.222327,0.242669,-15.273672,-46.437218,6.254944,,,,,,,
1504281067.502549,-2.384474,0.968003,-0.024005,0.291831,0.854985,1.195627,-0.389395,-0.823755,0.412066,0.126181,0.263391,0.260770,-15.273672,-46.437218,6.254944,,,,,,,
1504281067.512558,-2.365969,0.958889,-0.036395,0.122043,0.791457,1.122862,-0.402194,-0.818554,0.410134,0.178118,0.276134,0.187278,-16.698706,-46.069832,6.848633,,,,,,,
1504281067.522568,-2.348354,0.951557,-0.050895,-0.144862,0.495301,1.110113,-0.413621,-0.814320,0.407186,0.177552,0.294209,0.043086,-16.698706,-46.069832,6.848633,,,,,,,
1504281067.532578,-2.331370,0.945657,-0.068298,-0.366928,0.226441,1.135820,-0.423950,-0.810882,0.403407,0.138550,0.259917,-0.055125,-17.824789,-45.774422,6.618591,,,,,,,
1504281067.542588,-2.314818,0.940416,-0.086995,-0.460531,0.124921,1.129432,-0.433690,-0.807803,0.399208,0.089284,0.174548,-0.070900,-17.824789,-45.774422,6.618591,,,,,,,
1504281067.552597,-2.298562,0.935793,-0.105573,-0.517604,0.146780,1.055644,-0.442906,-0.805070,0.394585,0.034779,0.079270,-0.009469,-19.175940,-45.405205,6.462433,,,,,,,
1504281067.562607,-2.281896,0.932135,-0.123271,-0.564952,0.287955,0.934696,-0.451648,-0.802895,0.389069,-0.016751,0.053673,0.042297,-19.175940,-45.405205,6.462433,,,,,,,
1504281067.572617,-2.263799,0.929559,-0.139783,-0.582444,0.552507,0.800774,-0.460204,-0.801356,0.382152,-0.081437,0.036097,0.074268,-20.227591,-45.108727,5.857605,,,,,,,
1504281067.582627,-2.244410,0.927309,-0.154625,-0.532992,0.815387,0.719274,-0.468935,-0.800008,0.374282,-0.130445,0.023473,0.060594,-20.227591,-45.108727,5.857605,,,,,,,
1504281067.592637,-2.225516,0.924634,-0.167244,-0.391348,0.884603,0.668162,-0.477618,-0.798400,0.366657,-0.130566,-0.021012,-0.012455,-21.353704,-45.112282,5.104828,,,,,,,
1504281067.602646,-2.208721,0.921109,-0.177521,-0.247531,0.847205,0.652466,-0.485966,-0.796273,0.360258,-0.097209,-0.073402,-0.118880,-21.353704,-45.112282,5.104828,,,,,,,
1504281067.612656,-2.193902,0.916602,-0.186144,-0.133010,0.778031,0.683741,-0.494161,-0.793539,0.355108,-0.082377,-0.097819,-0.165090,-22.029974,-44.739861,4.875305,,,,,,,
1504281067.622666,-2.180192,0.910943,-0.194069,-0.049480,0.732505,0.762954,-0.502657,-0.790082,0.350864,-0.087385,-0.085314,-0.134663,-22.029974,-44.739861,4.875305,,,,,,,
1504281067.632676,-2.166558,0.904283,-0.201774,-0.008920,0.775792,0.829127,-0.511738,-0.785982,0.346924,-0.063137,-0.051969,-0.076569,-22.855612,-44.667976,4.572723,,,,,,,
1504281067.642685,-2.151842,0.897881,-0.209759,-0.080506,0.871262,0.788273,-0.520984,-0.782008,0.342111,-0.043515,-0.044134,-0.001917,-22.855612,-44.667976,4.572723,,,,,,,
1504281067.652695,-2.135723,0.892483,-0.218195,-0.170149,0.961579,0.722847,-0.529987,-0.778632,0.335924,-0.047878,-0.059136,0.063124,-23.906927,-44.371956,4.192871,,,,,,,
1504281067.662705,-2.119904,0.888106,-0.226736,-0.239697,0.882323,0.635339,-0.538137,-0.775878,0.329274,-0.070689,-0.101746,0.125972,-23.906927,-44.371956,4.192871,,,,,,,
1504281067.672715,-2.106009,0.884236,-0.235515,-0.289486,0.646193,0.613254,-0.545239,-0.773431,0.323294,-0.067203,-0.115607,0.091180,-24.808157,-44.150093,3.738953,,,,,,,
1504281067.682724,-2.094214,0.880574,-0.244937,-0.340698,0.385533,0.623232,-0.551464,-0.771104,0.318254,-0.045017,-0.156020,0.023649,-24.808157,-44.150093,3.738953,,,,,,,
1504281067.692734,-2.084406,0.877145,-0.254696,-0.374144,0.184445,0.589371,-0.556858,-0.768917,0.314128,-0.003033,-0.166600,-0.033137,-25.259130,-44.076073,3.212250,,,,,,,
1504281067.702744,-2.076371,0.874538,-0.263614,-0.368835,0.106737,0.469968,-0.561116,-0.767247,0.310613,0.022725,-0.149684,-0.038701,-25.259130,-44.076073,3.212250,,,,,,,
1504281067.712754,-2.069370,0.872908,-0.271602,-0.373799,0.086642,0.363255,-0.564375,-0.766201,0.307275,0.011839,-0.134480,-0.016488,-25.785482,-43.852379,2.684296,,,,,,,
1504281067.722763,-2.062510,0.872377,-0.279420,-0.438285,0.094744,0.256389,-0.566828,-0.765859,0.303588,-0.038916,-0.092386,-0.022536,-25.785482,-43.852379,2.684296,,,,,,,
1504281067.732773,-2.055682,0.873194,-0.287256,-0.496497,0.078299,0.135701,-0.568334,-0.766384,0.299419,-0.114726,-0.044605,0.002721,-26.161566,-43.553627,2.456085,,,,,,,
1504281067.742783,-2.049131,0.875067,-0.294876,-0.525894,0.075449,0.035319,-0.569007,-0.767586,0.295028,-0.144295,-0.010429,0.030426,-26.161566,-43.553627,2.456085,,,,,,,
1504281067.752793,-2.042868,0.877956,-0.301793,-0.522912,0.104324,-0.088546,-0.568866,-0.769435,0.290449,-0.090435,-0.003301,0.026262,-26.161688,-43.777718,2.007812,,,,,,,
1504281067.762803,-2.037385,0.882153,-0.307463,-0.504966,0.110742,-0.253973,-0.567561,-0.772109,0.285870,-0.002797,0.011764,0.007022,-26.161688,-43.777718,2.007812,,,,,,,
1504281067.772812,-2.033457,0.887689,-0.311358,-0.457379,0.083888,-0.425695,-0.564846,-0.775615,0.281726,0.090771,0.019863,-0.011798,-26.163382,-43.326973,1.629395,,,,,,,
1504281067.782822,-2.030838,0.894349,-0.313818,-0.427002,0.065658,-0.555833,-0.560941,-0.779801,0.277947,0.156828,0.037736,-0.040719,-26.163382,-43.326973,1.629395,,,,,,,
1504281067.792832,-2.028840,0.902124,-0.315570,-0.460536,0.063933,-0.680775,-0.556040,-0.784646,0.274136,0.177851,0.050545,-0.074856,-25.787848,-43.849236,1.109253,,,,,,,
1504281067.802842,-2.026798,0.911744,-0.317483,-0.556849,0.052121,-0.855975,-0.549796,-0.790573,0.269664,0.153938,0.047928,-0.100917,-25.787848,-43.849236,1.109253,,,,,,,
1504281067.812851,-2.024943,0.923333,-0.319905,-0.664553,-0.035279,-1.007578,-0.542026,-0.797617,0.264606,0.140048,0.073923,-0.103351,-25.487555,-44.371559,0.438934,,,,,,,
1504281067.822831,-2.024274,0.936029,-0.322633,-0.709229,-0.198935,-1.083153,-0.533056,-0.805210,0.259785,0.171514,0.097492,-0.084615,-25.487555,-44.371559,0.438934,,,,,,,
1504281067.832840,-2.025815,0.949168,-0.324924,-0.684912,-0.388764,-1.128674,-0.523106,-0.812931,0.255935,0.169560,0.115910,-0.029921,-24.663275,-44.441643,-0.158508,,,,,,,
1504281067.842850,-2.029836,0.961816,-0.326409,-0.614034,-0.562035,-1.070606,-0.512814,-0.820232,0.253460,0.142254,0.176631,0.005406,-24.663275,-44.441643,-0.158508,,,,,,,
1504281067.852860,-2.035155,0.973120,-0.327937,-0.575053,-0.679702,-0.945445,-0.503136,-0.826645,0.252015,0.037254,0.193131,0.010909,-23.537039,-45.111000,-0.450653,,,,,,,
1504281067.862870,-2.040095,0.983124,-0.330683,-0.590211,-0.736228,-0.777789,-0.494484,-0.832234,0.250745,-0.098351,0.184757,0.009082,-23.537039,-45.111000,-0.450653,,,,,,,
1504281067.872879,-2.043531,0.991722,-0.335126,-0.613138,-0.701042,-0.616713,-0.487230,-0.836970,0.249175,-0.324949,0.156703,-0.021102,-22.711859,-45.406548,-0.821381,,,,,,,
1504281067.882889,-2.045671,0.999572,-0.340333,-0.609582,-0.625466,-0.566672,-0.480838,-0.841240,0.247205,-0.447400,0.104606,-0.009657,-22.711859,-45.406548,-0.821381,,,,,,,
1504281067.892899,-2.046570,1.007756,-0.345329,-0.613370,-0.466602,-0.622464,-0.474480,-0.845636,0.244476,-0.364448,0.069986,-0.001907,-22.036444,-45.703056,-1.042450,,,,,,,
1504281067.902909,-2.046277,1.016631,-0.349473,-0.594340,-0.274862,-0.708161,-0.467861,-0.850340,0.240892,-0.211507,0.057478,-0.010850,-22.036444,-45.703056,-1.042450,,,,,,,
1504281067.912919,-2.045770,1.025850,-0.352327,-0.542057,-0.172942,-0.759486,-0.460991,-0.855155,0.237059,-0.112633,0.047217,-0.028746,-21.661978,-45.625923,-1.267090,,,,,,,
1504281067.922928,-2.045576,1.035236,-0.354343,-0.520397,-0.156032,-0.796837,-0.453878,-0.859983,0.233290,-0.073985,0.027036,-0.059874,-21.661978,-45.625923,-1.267090,,,,,,,
1504281067.932938,-2.045961,1.045021,-0.356662,-0.566073,-0.278176,-0.819116,-0.446283,-0.864935,0.229604,-0.071081,0.053290,-0.097249,-20.687429,-45.845192,-1.938019,,,,,,,
1504281067.942948,-2.046378,1.055211,-0.361206,-0.707687,-0.492289,-0.792299,-0.438329,-0.870004,0.225743,-0.075953,0.091119,-0.156117,-20.687429,-45.845192,-1.938019,,,,,,,
1504281067.952958,-2.045012,1.066015,-0.370256,-0.953946,-0.709814,-0.753916,-0.430249,-0.875280,0.220839,-0.047534,0.107458,-0.196883,-20.087759,-45.991600,-2.385437,,,,,,,
1504281067.962967,-2.041879,1.078081,-0.384752,-1.231838,-1.037861,-0.753819,-0.421497,-0.881052,0.214680,0.050114,0.114481,-0.200764,-20.087759,-45.991600,-2.385437,,,,,,,
1504281067.972977,-2.038577,1.088418,-0.397969,-0.884450,-0.723343,-0.590459,-0.414053,-0.885894,0.209170,0.168386,0.103179,-0.125186,-19.488241,-46.063011,-2.833374,,,,,,,
1504281067.982987,-2.036146,1.095244,-0.404503,-0.505453,-0.204469,-0.447685,-0.409146,-0.889040,0.205444,0.066861,0.048739,0.454117,-19.488241,-46.063011,-2.833374,,,,,,,
1504281067.992997,-2.029748,1.101435,-0.409085,-0.484806,0.358028,-0.477461,-0.405510,-0.891857,0.200380,0.057045,0.071789,0.516966,-18.813589,-46.283791,-3.430054,,,,,,,
1504281068.003006,-2.017316,1.109008,-0.417806,-0.761206,0.464765,-0.508016,-0.401866,-0.895257,0.192401,0.198573,0.320978,0.159253,-18.813589,-46.283791,-3.430054,,,,,,,
1504281068.013016,-1.998009,1.116480,-0.435203,-1.087810,0.327620,-0.275646,-0.399406,-0.898561,0.181830,0.303947,0.362154,0.025567,-18.588934,-46.506569,-4.027802,,,,,,,
1504281068.023026,-1.974885,1.121096,-0.459858,-1.177602,0.006159,0.099423,-0.399686,-0.900577,0.170914,0.116711,0.159626,-0.020096,-18.588934,-46.506569,-4.027802,,,,,,,
1504281068.033036,-1.951799,1.122137,-0.488071,-1.151696,-0.272539,0.449000,-0.402654,-0.901029,0.161294,-0.046717,0.198789,-0.079735,-18.516195,-46.278999,-5.154358,,,,,,,
1504281068.043045,-1.928868,1.120669,-0.514263,-0.949086,0.040045,0.543799,-0.407485,-0.900392,0.152482,-0.055452,0.044694,-0.101670,-18.516195,-46.278999,-5.154358,,,,,,,
1504281068.053055,-1.908037,1.120233,-0.532809,-0.665083,0.532478,0.223202,-0.410943,-0.900202,0.144091,-0.117499,-0.186331,-0.084994,-18.967428,-46.279381,-5.980469,,,,,,,
1504281068.063065,-1.893395,1.122816,-0.540110,-0.287640,0.865537,-0.262399,-0.410802,-0.901324,0.137321,-0.096919,-0.249784,-0.088768,-18.967428,-46.279381,-5.980469,,,,,,,
1504281068.073075,-1.886556,1.128639,-0.538052,-0.042652,0.823457,-0.676053,-0.406735,-0.903831,0.132876,-0.065646,-0.264016,-0.094531,-19.269567,-46.053627,-7.032928,,,,,,,
1504281068.083085,-1.888857,1.137386,-0.529054,0.125003,0.485717,-1.032746,-0.398904,-0.907539,0.131334,-0.075202,-0.233513,-0.140032,-19.269567,-46.053627,-7.032928,,,,,,,
1504281068.093094,-1.899790,1.149008,-0.515075,0.205613,0.082607,-1.369195,-0.387436,-0.912358,0.132271,-0.093964,-0.202861,-0.169518,-18.593969,-46.425148,-7.253448,,,,,,,
1504281068.103104,-1.919778,1.163209,-0.495256,0.297195,-0.269468,-1.684366,-0.372501,-0.918080,0.135544,-0.029080,-0.121166,-0.176071,-18.593969,-46.425148,-7.253448,,,,,,,
1504281068.113114,-1.948134,1.180319,-0.470681,0.275494,-0.653628,-2.013554,-0.353852,-0.924728,0.140242,0.118577,-0.017548,-0.191466,-17.168188,-46.644035,-7.098236,,,,,,,
1504281068.123124,-1.987226,1.197625,-0.437466,0.540891,-0.851833,-2.062912,-0.333414,-0.931176,0.147468,0.243952,-0.018119,-0.241050,-17.168188,-46.644035,-7.098236,,,,,,,
1504281068.133133,-2.032774,1.211351,-0.397658,0.749817,-0.816579,-1.753066,-0.314881,-0.936092,0.156784,0.055253,-0.123570,0.050736,-15.592077,-46.862709,-6.717682,,,,,,,
1504281068.143143,-2.077593,1.220649,-0.357452,0.809753,-0.691724,-1.376389,-0.299918,-0.939322,0.166503,-0.174997,-0.116861,0.118776,-15.592077,-46.862709,-6.717682,,,,,,,
1504281068.153122,-2.116845,1.226435,-0.322123,0.735178,-0.585991,-1.014855,-0.288503,-0.941291,0.175318,-0.239481,-0.071465,0.039236,-13.715094,-47.380180,-6.259064,,,,,,,
1504281068.163132,-2.150373,1.229861,-0.292223,0.639420,-0.533243,-0.769612,-0.279764,-0.942442,0.183123,-0.240561,-0.081636,0.018796,-13.715094,-47.380180,-6.259064,,,,,,,
1504281068.173142,-2.178728,1.232320,-0.267524,0.506879,-0.482203,-0.639708,-0.272557,-0.943262,0.189658,-0.183650,-0.035605,-0.004233,-12.738409,-47.602287,-5.504974,,,,,,,
1504281068.183152,-2.202023,1.235223,-0.247197,0.334720,-0.388092,-0.626296,-0.265854,-0.944222,0.194338,-0.086838,0.032448,0.015455,-12.738409,-47.602287,-5.504974,,,,,,,
1504281068.193161,-2.220735,1.239720,-0.230467,0.116394,-0.260460,-0.715494,-0.258788,-0.945693,0.196707,-0.016984,0.068480,0.068720,-12.211905,-47.751427,-4.752533,,,,,,,
1504281068.203171,-2.236653,1.246560,-0.215452,-0.084521,-0.138220,-0.881505,-0.250531,-0.947894,0.196800,0.005414,0.117633,0.098503,-12.211905,-47.751427,-4.752533,,,,,,,
1504281068.213181,-2.251547,1.255569,-0.200030,-0.207323,0.016403,-1.041034,-0.240927,-0.950726,0.195127,-0.020899,0.143170,0.097689,-11.087057,-47.820930,-4.974213,,,,,,,
1504281068.223191,-2.265745,1.265464,-0.183445,-0.239689,0.208528,-1.089461,-0.230895,-0.953747,0.192494,-0.056276,0.121044,0.082133,-11.087057,-47.820930,-4.974213,,,,,,,
1504281068.233200,-2.278213,1.274923,-0.166701,-0.222512,0.395865,-1.024651,-0.221610,-0.956548,0.189487,-0.074914,0.053563,0.067654,-10.262289,-47.592659,-4.748840,,,,,,,
1504281068.243210,-2.290050,1.283717,-0.149569,-0.191203,0.469088,-0.980962,-0.213015,-0.959075,0.186548,-0.092679,-0.001481,0.050879,-10.262289,-47.592659,-4.748840,,,,,,,
1504281068.253220,-2.301565,1.292060,-0.132400,-0.186907,0.499909,-0.937245,-0.204887,-0.961404,0.183641,-0.105873,-0.063560,0.015639,-9.137793,-47.661705,-5.195557,,,,,,,
1504281068.263230,-2.314946,1.299863,-0.113115,-0.122717,0.530269,-0.923311,-0.196887,-0.963521,0.181279,-0.102597,-0.089991,0.004726,-9.137793,-47.661705,-5.195557,,,,,,,
1504281068.273240,-2.329144,1.306658,-0.092327,-0.042437,0.612641,-0.843262,-0.189535,-0.965318,0.179549,-0.131373,-0.140944,0.001054,-8.313437,-47.582405,-5.494049,,,,,,,
1504281068.283249,-2.341518,1.311984,-0.072431,0.007797,0.710118,-0.704585,-0.183608,-0.966695,0.178296,-0.141511,-0.123851,0.008807,-8.313437,-47.582405,-5.494049,,,,,,,
1504281068.293259,-2.349974,1.316899,-0.055903,-0.077581,0.754433,-0.629025,-0.178711,-0.967941,0.176501,-0.094498,-0.065018,0.021603,-7.187475,-47.877647,-5.339050,,,,,,,
1504281068.303269,-2.353334,1.322636,-0.044787,-0.249777,0.737719,-0.591868,-0.174176,-0.969366,0.173183,-0.032626,-0.032663,0.037648,-7.187475,-47.877647,-5.339050,,,,,,,
1504281068.313279,-2.350097,1.329358,-0.040550,-0.464632,0.718126,-0.543105,-0.170097,-0.970995,0.168035,0.001838,-0.101988,0.075862,-6.363256,-47.872887,-5.862000,,,,,,,
1504281068.323288,-2.341553,1.337609,-0.043873,-0.681026,0.480141,-0.535589,-0.165773,-0.972935,0.160988,0.007249,-0.120266,0.053703,-6.363256,-47.872887,-5.862000,,,,,,,
1504281068.333298,-2.330247,1.346519,-0.051315,-0.761766,0.398740,-0.521709,-0.161289,-0.974955,0.153129,-0.006161,-0.131795,-0.017447,-5.462896,-48.018852,-5.858643,,,,,,,
1504281068.343308,-2.317403,1.354776,-0.060708,-0.680325,0.362816,-0.436112,-0.157328,-0.976758,0.145572,-0.027975,-0.086810,-0.006687,-5.462896,-48.018852,-5.858643,,,,,,,
1504281068.353318,-2.305313,1.360670,-0.069382,-0.477425,0.362027,-0.259638,-0.154801,-0.978005,0.139798,-0.050338,-0.100273,-0.016278,-4.791174,-47.338722,-6.912079,,,,,,,
1504281068.363327,-2.293853,1.363386,-0.077599,-0.244107,0.328964,-0.029684,-0.154401,-0.978568,0.136257,-0.064365,-0.116602,-0.008755,-4.791174,-47.338722,-6.912079,,,,,,,
1504281068.373337,-2.286575,1.362759,-0.082868,0.018284,0.169964,0.158914,-0.155851,-0.978438,0.135533,-0.074450,-0.117555,-0.006260,-4.717154,-47.262337,-7.437469,,,,,,,
1504281068.383347,-2.286325,1.359741,-0.082845,0.260767,-0.006882,0.246106,-0.158113,-0.977810,0.137430,-0.054228,-0.076206,-0.038034,-4.717154,-47.262337,-7.437469,,,,,,,
1504281068.393357,-2.292236,1.354917,-0.076897,0.463300,-0.003266,0.289146,-0.160838,-0.976788,0.141476,-0.006917,-0.035159,-0.050991,-4.942526,-47.113350,-7.439148,,,,,,,
1504281068.403366,-2.303871,1.348608,-0.065099,0.659326,-0.031534,0.302345,-0.163757,-0.975418,0.147459,0.040863,-0.024949,-0.014783,-4.942526,-47.113350,-7.439148,,,,,,,
1504281068.413376,-2.321174,1.341100,-0.048324,0.800708,-0.099826,0.297373,-0.166534,-0.973736,0.155260,0.066482,-0.004368,-0.049577,-4.640905,-47.487892,-6.985596,,,,,,,
1504281068.423386,-2.339076,1.334131,-0.030893,0.756462,-0.092962,0.194814,-0.168603,-0.972125,0.162927,0.056695,0.046665,-0.085550,-4.640905,-47.487892,-6.985596,,,,,,,
1504281068.433396,-2.357235,1.329153,-0.012676,0.621464,-0.022376,-0.007284,-0.169033,-0.970946,0.169385,0.056637,0.148192,-0.043546,-5.164511,-47.641594,-6.310730,,,,,,,
1504281068.443406,-2.372692,1.326909,0.003079,0.349090,-0.005084,-0.132672,-0.167910,-0.970407,0.173543,0.025576,0.187600,-0.006139,-5.164511,-47.641594,-6.310730,,,,,,,
1504281068.453415,-2.380652,1.326758,0.011351,0.092032,0.006620,-0.128869,-0.166624,-0.970370,0.174981,0.000731,0.083819,0.026268,-5.238729,-47.642982,-5.785889,,,,,,,
1504281068.463425,-2.382151,1.327990,0.012911,-0.109781,-0.002393,-0.111057,-0.165538,-0.970667,0.174363,-0.027333,-0.024893,0.034240,-5.238729,-47.642982,-5.785889,,,,,,,
1504281068.473404,-2.382033,1.330275,0.012715,-0.174584,-0.009248,-0.178403,-0.164031,-0.971214,0.172734,-0.047044,-0.036537,0.016749,-5.463339,-47.569740,-5.412018,,,,,,,
1504281068.483421,-2.368769,1.330214,0.000124,-0.077589,-0.001313,-0.359688,-0.166349,-0.971199,0.170586,-0.044680,0.010445,-0.009911,-5.463339,-47.569740,-5.412018,,,,,,,
1504281068.493431,-2.384826,1.333542,0.016394,0.064988,-0.038515,-0.554710,-0.161369,-0.971987,0.170884,-0.057885,0.093584,-0.044694,-5.313650,-47.718163,-5.860535,,,,,,,
1504281068.503441,-2.407862,1.336931,0.040346,0.170771,0.035338,-0.681678,-0.155183,-0.972778,0.172109,-0.057479,0.122573,-0.065083,-5.313650,-47.718163,-5.860535,,,,,,,
1504281068.513449,-2.450413,1.339515,0.082908,0.549280,-0.176338,-0.969914,-0.146118,-0.973374,0.176617,-0.057846,0.130844,-0.060375,-4.337896,-48.013786,-5.855865,,,,,,,
1504281068.523459,-2.507665,1.340142,0.139300,0.792624,-0.235768,-1.081465,-0.135411,-0.973517,0.184196,-0.044825,0.198920,-0.174904,-4.337896,-48.013786,-5.855865,,,,,,,
1504281068.533469,-2.574582,1.339018,0.205263,0.991405,-0.282014,-1.221936,-0.123380,-0.973259,0.193762,-0.092624,0.120324,-0.163961,-3.587759,-47.711617,-5.256287,,,,,,,
1504281068.543479,-2.648868,1.336862,0.278382,1.046252,-0.330247,-1.386136,-0.109651,-0.972762,0.204232,-0.101546,0.091109,-0.126763,-3.587759,-47.711617,-5.256287,,,,,,,
1504281068.553488,-2.722785,1.335340,0.352386,0.841274,-0.155804,-1.509550,-0.094871,-0.972408,0.213125,-0.119591,0.061824,-0.087667,-2.311224,-47.782677,-4.352539,,,,,,,
1504281068.563498,-2.802174,1.333634,0.430725,0.804148,-0.347164,-1.645904,-0.078222,-0.972009,0.221541,-0.083139,0.050897,0.027742,-2.311224,-47.782677,-4.352539,,,,,,,
1504281068.573509,-2.876225,1.331594,0.503496,0.667405,-0.306715,-1.545877,-0.062138,-0.971527,0.228634,-0.048122,0.033264,-0.039578,-0.586233,-47.326424,-3.601654,,,,,,,
1504281068.583519,-2.943725,1.329179,0.570152,0.551202,-0.236591,-1.452271,-0.047036,-0.970952,0.234604,0.030145,0.103933,-0.015122,-0.586233,-47.326424,-3.601654,,,,,,,
1504281068.593529,-2.996377,1.328434,0.624142,0.202192,0.043071,-1.193990,-0.034729,-0.970774,0.237470,0.150314,0.192209,-0.003873,0.764429,-47.321251,-3.148315,,,,,,,
1504281068.603538,-3.032067,1.331441,0.663117,-0.334243,0.274126,-0.870836,-0.025914,-0.971491,0.235656,0.225987,0.126673,0.101731,0.764429,-47.321251,-3.148315,,,,,,,
1504281068.613548,-3.050936,1.340229,0.686452,-0.985730,0.389984,-0.554084,-0.020689,-0.973537,0.227591,0.237440,0.068782,0.158227,2.188822,-46.940285,-2.922607,,,,,,,
1504281068.623558,-3.058916,1.354888,0.697720,-1.572689,0.248593,-0.324293,-0.017692,-0.976782,0.213503,0.188102,0.074652,0.141264,2.188822,-46.940285,-2.922607,,,,,,,
1504281068.633568,-3.062308,1.374043,0.701570,-1.990557,-0.036857,-0.214571,-0.015483,-0.980706,0.194872,0.168055,0.072885,0.053480,2.638178,-47.086922,-3.595398,,,,,,,
1504281068.643577,-3.065739,1.395426,0.703026,-2.151343,-0.247614,-0.188860,-0.013222,-0.984662,0.173972,0.190849,-0.002505,0.031808,2.638178,-47.086922,-3.595398,,,,,,,
1504281068.653587,-3.073500,1.416713,0.708026,-2.094652,-0.273582,-0.259165,-0.010442,-0.988153,0.153119,0.163564,-0.068793,0.033344,3.010233,-46.857094,-5.171204,,,,,,,
1504281068.663597,-3.086563,1.437641,0.719359,-2.039949,-0.147154,-0.328674,-0.007302,-0.991148,0.132561,0.042245,-0.139635,-0.062584,3.010233,-46.857094,-5.171204,,,,,,,
1504281068.673607,-3.117958,1.456960,0.750788,-1.899928,0.046872,-0.496356,-0.002684,-0.993528,0.113559,-0.056749,-0.177920,-0.124149,3.231623,-46.627037,-7.197357,,,,,,,
1504281068.683615,3.093852,1.475291,0.825998,-1.805570,0.405591,-0.871483,0.004551,-0.995443,0.095252,-0.131290,-0.142909,-0.116263,3.231623,-46.627037,-7.197357,,,,,,,
1504281068.693625,2.942217,1.490218,0.983324,-1.595352,0.554535,-1.281264,0.015942,-0.996755,0.078897,-0.163189,-0.079645,-0.134683,3.677668,-46.395531,-9.447968,,,,,,,
1504281068.703635,2.707622,1.499262,1.225006,-1.356487,0.658307,-1.516929,0.030053,-0.997443,0.064848,-0.224145,-0.038782,-0.161161,3.677668,-46.395531,-9.447968,,,,,,,
1504281068.713645,2.443062,1.500138,1.497712,-1.018093,0.768549,-1.589120,0.045402,-0.997505,0.054064,-0.222328,-0.033211,-0.032381,4.949381,-45.936958,-10.873230,,,,,,,
1504281068.723655,2.233765,1.493658,1.715591,-0.602795,0.815188,-1.566067,0.060738,-0.997026,0.047428,-0.194710,-0.011595,0.107647,4.949381,-45.936958,-10.873230,,,,,,,
1504281068.733665,2.112821,1.482740,1.845602,-0.150466,0.861457,-1.481040,0.075337,-0.996126,0.045367,-0.153066,0.017198,0.118192,7.046885,-45.475731,-11.771454,,,,,,,
1504281068.743675,2.064069,1.469168,1.903436,0.308355,0.891735,-1.439737,0.089359,-0.994840,0.048039,-0.108600,0.006376,0.091304,7.046885,-45.475731,-11.771454,,,,,,,
1504281068.753685,2.059134,1.453526,1.918001,0.682475,0.966462,-1.458434,0.103326,-0.993132,0.054893,-0.093393,-0.017443,0.076791,8.470514,-45.019020,-11.921326,,,,,,,
1504281068.763695,2.075309,1.436218,1.911766,0.954921,0.995151,-1.487900,0.117456,-0.990958,0.064856,-0.090662,-0.047403,0.067559,8.470514,-45.019020,-11.921326,,,,,,,
1504281068.773704,2.103819,1.417787,1.892967,1.200006,0.982433,-1.445824,0.131270,-0.988317,0.077447,-0.082961,-0.044551,0.027640,9.970621,-44.563927,-11.095978,,,,,,,
1504281068.783714,2.135327,1.400260,1.870179,1.210750,0.853193,-1.239569,0.143379,-0.985494,0.090799,-0.080284,-0.056987,0.003607,9.970621,-44.563927,-11.095978,,,,,,,
1504281068.793724,2.159154,1.386584,1.852300,0.914007,0.528122,-0.877660,0.152372,-0.983081,0.101660,-0.068831,-0.159375,-0.125997,11.772074,-44.557777,-10.116516,,,,,,,
1504281068.803703,2.171164,1.378729,1.842938,0.485770,0.214716,-0.444484,0.157507,-0.981612,0.107842,-0.041220,-0.322877,-0.242897,11.772074,-44.557777,-10.116516,,,,,,,
1504281068.813713,2.177264,1.375548,1.838086,0.193271,0.115580,-0.143809,0.159412,-0.980999,0.110580,0.000836,-0.391208,-0.144500,12.597925,-44.181465,-8.917297,,,,,,,
1504281068.823723,2.181488,1.374905,1.834134,0.083747,0.003348,0.030186,0.159460,-0.980875,0.111614,0.047175,-0.298789,-0.049617,12.597925,-44.181465,-8.917297,,,,,,,
1504281068.833731,2.189472,1.375142,1.824860,0.165124,-0.151960,0.151217,0.158374,-0.980921,0.112748,0.050137,-0.200781,-0.073564,12.748270,-44.181236,-8.691925,,,,,,,
1504281068.843741,2.205076,1.375516,1.806361,0.306441,-0.285380,0.269111,0.156300,-0.980993,0.114989,0.006587,-0.149561,-0.061720,12.748270,-44.181236,-8.691925,,,,,,,
1504281068.853751,2.228320,1.375915,1.779024,0.423587,-0.378100,0.378353,0.153276,-0.981071,0.118351,-0.013093,-0.115334,-0.039951,12.748713,-44.181831,-8.391907,,,,,,,
1504281068.863761,2.256950,1.377031,1.745355,0.435983,-0.464679,0.535435,0.148978,-0.981286,0.121997,-0.005881,-0.096030,-0.019198,12.748713,-44.181831,-8.391907,,,,,,,
1504281068.873770,2.288136,1.379940,1.707894,0.332654,-0.588707,0.731877,0.142950,-0.981842,0.124705,0.018397,-0.137909,-0.026271,12.449427,-44.333626,-8.166534,,,,,,,
1504281068.883780,2.321799,1.384375,1.666607,0.267931,-0.719395,0.878229,0.135487,-0.982674,0.126473,0.027279,-0.156532,-0.032540,12.449427,-44.333626,-8.166534,,,,,,,
1504281068.893790,2.362263,1.389092,1.617534,0.342600,-0.788319,0.985221,0.127001,-0.983537,0.128552,0.018873,-0.119750,-0.024044,11.550837,-44.713264,-7.865906,,,,,,,
1504281068.903800,2.412697,1.392203,1.558382,0.556194,-0.767692,0.977015,0.118320,-0.984095,0.132508,-0.002430,-0.061987,-0.012543,11.550837,-44.713264,-7.865906,,,,,,,
1504281068.913810,2.471554,1.392385,1.491042,0.828966,-0.726172,0.902696,0.110210,-0.984127,0.139098,-0.013972,0.041057,-0.018340,10.501215,-44.867989,-7.867371,,,,,,,
1504281068.923820,2.533645,1.388946,1.421398,1.067511,-0.606506,0.756665,0.103298,-0.983511,0.148445,0.009281,0.140158,-0.037437,10.501215,-44.867989,-7.867371,,,,,,,
1504281068.933830,2.589887,1.382605,1.359399,1.154325,-0.416269,0.554741,0.098058,-0.982344,0.159326,0.019572,0.186110,-0.038888,9.377649,-45.173943,-7.417908,,,,,,,
1504281068.943840,2.632900,1.375189,1.312656,1.069167,-0.256573,0.342966,0.094661,-0.980930,0.169752,0.008198,0.170200,-0.031569,9.377649,-45.173943,-7.417908,,,,,,,
1504281068.953850,2.663487,1.368183,1.279723,0.855183,-0.144919,0.213242,0.092585,-0.979544,0.178665,-0.004237,0.117987,-0.032166,8.855112,-45.702797,-6.665253,,,,,,,
1504281068.963859,2.674145,1.365035,1.268598,0.262125,0.007243,-0.003669,0.092065,-0.978906,0.182394,-0.020303,0.106469,-0.011846,8.855112,-45.702797,-6.665253,,,,,,,
1504281068.973869,2.665321,1.366279,1.277877,-0.350541,0.027346,-0.137124,0.093113,-0.979159,0.180493,-0.017414,0.198138,0.053730,8.631571,-45.930016,-6.064087,,,,,,,
1504281068.983879,2.643821,1.371571,1.299868,-0.750923,-0.006654,-0.135623,0.094496,-0.980220,0.173894,-0.007124,0.146388,0.059474,8.631571,-45.930016,-6.064087,,,,,,,
1504281068.993889,2.618688,1.378422,1.325447,-0.849263,0.000500,-0.087773,0.095480,-0.981553,0.165642,-0.027548,0.027863,0.021965,8.855677,-45.703545,-6.290222,,,,,,,
1504281069.003897,2.597152,1.384288,1.347477,-0.649835,0.012671,-0.050090,0.096041,-0.982658,0.158619,-0.044360,-0.049905,-0.018422,8.855677,-45.703545,-6.290222,,,,,,,
1504281069.013907,2.585119,1.387404,1.359994,-0.290214,0.032067,-0.031355,0.096325,-0.983231,0.154851,-0.053692,-0.069946,-0.044606,8.704279,-45.552879,-6.966736,,,,,,,
1504281069.023917,2.598191,1.396581,1.347681,0.079218,0.054651,-0.052073,0.089623,-0.984863,0.148368,-0.057214,-0.040421,-0.050589,8.704279,-45.552879,-6.966736,,,,,,,
1504281069.033927,2.601851,1.394154,1.344788,0.262155,0.091547,-0.091315,0.090308,-0.984439,0.150744,-0.052328,0.012897,-0.028323,8.779551,-45.702385,-7.040436,,,,,,,
1504281069.043936,2.604130,1.391703,1.343623,0.187784,0.118820,-0.110705,0.091199,-0.984006,0.153022,-0.036740,0.032071,-0.001884,8.779551,-45.702385,-7.040436,,,,,,,
1504281069.053946,2.600969,1.390840,1.348085,-0.024505,0.122700,-0.111079,0.092119,-0.983852,0.153461,-0.026781,0.013286,-0.010776,8.704386,-45.553032,-6.891724,,,,,,,
1504281069.063956,2.598291,1.395395,1.352289,-0.229391,0.127582,-0.097555,0.090212,-0.984657,0.149376,-0.024889,-0.005135,-0.020531,8.704386,-45.553032,-6.891724,,,,,,,
1504281069.073967,2.585921,1.397725,1.366197,-0.345715,0.135979,-0.078558,0.090843,-0.985060,0.146299,-0.032508,-0.013017,-0.031599,8.930002,-45.702309,-6.740051,,,,,,,
1504281069.083977,2.573925,1.400283,1.379942,-0.327472,0.162447,-0.057225,0.091236,-0.985498,0.143074,-0.042179,-0.016288,-0.050209,8.930002,-45.702309,-6.740051,,,,,,,
1504281069.093986,2.565650,1.402003,1.390262,-0.203459,0.195521,-0.053867,0.091493,-0.985788,0.140892,-0.042650,-0.020437,-0.027382,9.153559,-45.400414,-7.191772,,,,,,,
1504281069.103996,2.574573,1.402851,1.383721,-0.066645,0.212537,-0.074999,0.089784,-0.985930,0.140998,-0.020554,-0.001771,0.009057,9.153559,-45.400414,-7.191772,,,,,,,
1504281069.114006,2.572079,1.402283,1.388532,0.023268,0.228879,-0.106894,0.090437,-0.985835,0.141245,-0.000898,0.024318,0.026128,9.154123,-45.625404,-7.190063,,,,,,,
1504281069.124016,2.568831,1.401365,1.394211,0.019204,0.236402,-0.135734,0.091386,-0.985681,0.141711,0.008422,0.028634,0.009214,9.153711,-45.550102,-7.340637,,,,,,,
1504281069.133995,2.563698,1.400612,1.401772,-0.013837,0.231361,-0.150726,0.092517,-0.985554,0.141861,0.000287,0.017841,-0.017731,9.153711,-45.550102,-7.340637,,,,,,,
1504281069.144005,2.561245,1.401469,1.406557,-0.030033,0.210183,-0.146441,0.092402,-0.985698,0.140928,-0.015452,0.010814,-0.011000,9.603601,-45.547935,-7.414520,,,,,,,
1504281069.154014,2.554519,1.401436,1.415449,-0.135788,0.212090,-0.117808,0.093365,-0.985693,0.140330,-0.030255,0.007742,-0.000621,9.603601,-45.547935,-7.414520,,,,,,,
1504281069.164024,2.541130,1.403379,1.431322,-0.349102,0.224498,-0.112863,0.094154,-0.986018,0.137487,-0.025321,-0.002843,0.023493,9.978174,-45.246696,-7.190857,,,,,,,
1504281069.174034,2.526105,1.405269,1.448379,-0.288704,0.164340,-0.125461,0.095132,-0.986332,0.134535,-0.011026,-0.021298,0.022157,9.978174,-45.246696,-7.190857,,,,,,,
1504281069.184044,2.514636,1.408611,1.461766,-0.121020,0.186411,-0.126270,0.094734,-0.986877,0.130765,-0.015404,-0.031708,-0.024305,9.902353,-45.320686,-7.865479,,,,,,,
1504281069.194052,2.508179,1.408010,1.470101,-0.019624,0.171755,-0.157023,0.095928,-0.986780,0.130629,0.010502,-0.022223,-0.011595,9.902353,-45.320686,-7.865479,,,,,,,
1504281069.204062,2.494214,1.407610,1.486226,-0.180996,0.206228,-0.263036,0.097981,-0.986715,0.129591,0.049739,0.048009,0.006441,10.126932,-45.020134,-7.642151,,,,,,,
1504281069.214072,2.468068,1.408154,1.515331,-0.360372,0.265344,-0.356315,0.101001,-0.986803,0.126566,0.043240,0.100389,0.050115,10.126932,-45.020134,-7.642151,,,,,,,
1504281069.224082,2.447136,1.406026,1.538913,-0.211684,0.208654,-0.308997,0.104971,-0.986456,0.126038,0.016016,0.038427,0.033554,10.727121,-45.092430,-7.640106,,,,,,,
1504281069.234092,2.434939,1.404842,1.553068,-0.017068,0.170752,-0.242414,0.107259,-0.986261,0.125636,-0.013021,-0.045706,-0.022746,10.727121,-45.092430,-7.640106,,,,,,,
1504281069.244102,2.427901,1.402642,1.561855,0.099270,0.163421,-0.262480,0.109561,-0.985895,0.126518,-0.021884,-0.003164,-0.017357,10.651178,-44.942024,-8.016449,,,,,,,
1504281069.254112,2.424957,1.399401,1.566532,0.229490,0.165553,-0.269730,0.112031,-0.985348,0.128603,-0.005921,0.100002,0.006223,10.651178,-44.942024,-8.016449,,,,,,,
1504281069.264122,2.428877,1.394897,1.564006,0.407326,0.132104,-0.254419,0.114427,-0.984570,0.132398,0.007201,0.130352,0.022936,11.327112,-45.089729,-7.638641,,,,,,,
1504281069.274132,2.437802,1.390152,1.556059,0.460020,0.096429,-0.180614,0.116262,-0.983728,0.136974,-0.000372,0.095865,0.002933,11.327112,-45.089729,-7.638641,,,,,,,
1504281069.284141,2.447795,1.385793,1.546206,0.437808,0.014515,-0.136745,0.117629,-0.982936,0.141425,-0.014434,-0.009511,-0.033606,11.252985,-45.165962,-7.188263,,,,,,,
1504281069.294151,2.454090,1.386337,1.540126,0.335695,0.047349,-0.148708,0.116397,-0.983036,0.141749,-0.040835,-0.087613,-0.052958,11.252985,-45.165962,-7.188263,,,,,,,
1504281069.304161,2.455752,1.383430,1.539566,0.194587,0.133813,-0.186412,0.117971,-0.982498,0.144154,-0.054143,-0.107132,-0.015660,11.553171,-45.015373,-6.813660,,,,,,,
1504281069.314171,2.451945,1.381458,1.545342,0.048025,0.202179,-0.212404,0.119751,-0.982129,0.145198,-0.035080,-0.087436,0.005666,11.553171,-45.015373,-6.813660,,,,,,,
1504281069.324179,2.444651,1.380551,1.555016,-0.076751,0.222366,-0.191307,0.121378,-0.981958,0.145003,-0.015345,-0.045218,0.011170,11.553095,-44.940514,-6.739197,,,,,,,
1504281069.334189,2.441154,1.380433,1.561029,-0.165438,0.218813,-0.170104,0.121960,-0.981936,0.144667,-0.008694,-0.023069,0.014894,11.553095,-44.940514,-6.739197,,,,,,,
1504281069.344199,2.429004,1.381031,1.575811,-0.243093,0.245032,-0.174554,0.123324,-0.982049,0.142730,-0.014926,0.002434,0.006883,11.552912,-44.865517,-6.739777,,,,,,,
1504281069.354209,2.414609,1.381843,1.593266,-0.283192,0.282688,-0.203510,0.124836,-0.982201,0.140344,-0.015293,0.031045,0.005683,11.552912,-44.865517,-6.739777,,,,,,,
1504281069.364218,2.397796,1.382470,1.613514,-0.302925,0.320196,-0.251643,0.126761,-0.982319,0.137772,-0.012732,0.046665,-0.003251,11.927149,-44.563820,-6.741089,,,,,,,
1504281069.374228,2.379992,1.382823,1.635252,-0.307641,0.362918,-0.307231,0.128954,-0.982385,0.135243,-0.012698,0.046563,-0.004597,11.927149,-44.563820,-6.741089,,,,,,,
1504281069.384238,2.360057,1.382526,1.659638,-0.293104,0.415064,-0.357465,0.131830,-0.982329,0.132852,-0.021326,0.019805,-0.002023,12.376322,-44.411201,-7.041138,,,,,,,
1504281069.394248,2.340097,1.381880,1.684605,-0.286161,0.469375,-0.378897,0.134911,-0.982208,0.130636,-0.030114,-0.005753,-0.004477,12.376322,-44.411201,-7.041138,,,,,,,
1504281069.404258,2.320191,1.381077,1.709966,-0.285793,0.508811,-0.389640,0.138062,-0.982057,0.128462,-0.022736,-0.005369,-0.002211,12.826120,-44.334175,-7.040588,,,,,,,
1504281069.414268,2.301371,1.380251,1.734409,-0.281499,0.519419,-0.377909,0.141059,-0.981901,0.126382,-0.007590,0.014128,-0.001520,12.826120,-44.334175,-7.040588,,,,,,,
1504281069.424278,2.283704,1.379459,1.757397,-0.274612,0.474561,-0.332988,0.143858,-0.981751,0.124379,0.009768,0.035752,-0.002690,13.274988,-44.106407,-7.416168,,,,,,,
1504281069.434288,2.267731,1.378981,1.777591,-0.244897,0.359168,-0.271891,0.146186,-0.981660,0.122367,0.032693,0.025651,-0.013892,13.274988,-44.106407,-7.416168,,,,,,,
