timestamp(unix),attitude_roll(radians),attitude_pitch(radians),attitude_yaw(radians),rotation_rate_x(radians/s),rotation_rate_y(radians/s),rotation_rate_z(radians/s),gravity_x(G),gravity_y(G),gravity_z(G),user_acc_x(G),user_acc_y(G),user_acc_z(G),magnetic_field_x(microteslas),magnetic_field_y(microteslas),magnetic_field_z(microteslas),latitude(degree),longitude(degree),altitude(meter),speed(m/s),course(degree),timestamp(unix),User Mark
1504281646.271029,-0.025098,0.266123,-2.991751,-0.037457,0.093677,0.051977,-0.024212,-0.262993,-0.964494,-0.002933,-0.140373,0.053331,-22.023382,-13.751917,-39.082062,,,,,,,
1504281646.281038,-0.025132,0.266365,-2.991242,0.045960,-0.017828,0.048048,-0.024243,-0.263226,-0.964429,0.003048,-0.140933,0.054456,-22.099066,-13.527109,-39.158936,,,,,,,
1504281646.291048,-0.026153,0.267293,-2.990749,0.108194,-0.109978,0.044049,-0.025221,-0.264122,-0.964159,0.004393,-0.140572,0.057742,-22.099066,-13.527109,-39.158936,,,,,,,
1504281646.301058,-0.027861,0.272734,-2.990344,0.145183,-0.168878,0.031410,-0.026828,-0.269366,-0.962664,0.003985,-0.137891,0.061511,-22.023977,-13.601618,-39.233185,,,,,,,
1504281646.311068,-0.029772,0.274223,-2.990078,0.148325,-0.184874,0.017567,-0.028656,-0.270799,-0.962209,0.002853,-0.141600,0.064108,-22.023977,-13.601618,-39.233185,,,,,,,
1504281646.321078,-0.031525,0.275567,-2.989942,0.122935,-0.164407,0.006813,-0.030331,-0.272092,-0.961793,0.000652,-0.144168,0.062181,-22.023001,-13.901926,-39.080933,,,,,,,
1504281646.331087,-0.032809,0.276505,-2.989868,0.088137,-0.115099,0.003464,-0.031558,-0.272995,-0.961498,-0.003202,-0.148224,0.064006,-22.023001,-13.901926,-39.080933,,,,,,,
1504281646.341097,-0.034005,0.281462,-2.989662,0.053449,-0.055142,0.006509,-0.032661,-0.277760,-0.960095,-0.006737,-0.146373,0.061505,-22.322897,-13.903421,-39.006683,,,,,,,
1504281646.351107,-0.034176,0.281740,-2.989530,0.018648,0.000548,0.013823,-0.032822,-0.278027,-0.960012,-0.010162,-0.147479,0.062597,-22.322897,-13.903421,-39.006683,,,,,,,
1504281646.361117,-0.033851,0.281655,-2.989329,-0.017279,0.048788,0.021147,-0.032511,-0.277946,-0.960046,-0.011175,-0.148476,0.066385,-22.322439,-13.904016,-38.706696,,,,,,,
1504281646.371126,-0.033713,0.285580,-2.988958,-0.043657,0.079906,0.023191,-0.032341,-0.281714,-0.958953,-0.009819,-0.145288,0.062072,-22.322439,-13.904016,-38.706696,,,,,,,
1504281646.381136,-0.033168,0.289002,-2.988653,-0.063688,0.101387,0.019923,-0.031787,-0.284996,-0.958002,-0.007016,-0.139092,0.057626,-22.023458,-13.677073,-39.007629,,,,,,,
1504281646.391146,-0.032353,0.292183,-2.988488,-0.066800,0.101420,0.012449,-0.030976,-0.288044,-0.957116,-0.002670,-0.134045,0.059106,-22.023458,-13.677073,-39.007629,,,,,,,
1504281646.401156,-0.031518,0.295266,-2.988386,-0.060542,0.077923,0.013569,-0.030149,-0.290994,-0.956250,0.002393,-0.130973,0.059460,-22.022635,-13.827662,-38.706512,,,,,,,
1504281646.411165,-0.030713,0.298365,-2.988346,-0.039406,0.046844,0.013655,-0.029352,-0.293958,-0.955368,0.009134,-0.125567,0.057479,-22.022635,-13.827662,-38.706512,,,,,,,
1504281646.421175,-0.030172,0.301418,-2.988348,-0.025744,0.012635,0.009463,-0.028807,-0.296875,-0.954482,0.011122,-0.118561,0.058058,-22.022635,-13.827662,-38.706512,,,,,,,
1504281646.431185,-0.029896,0.304375,-2.988429,-0.019525,-0.019379,0.003119,-0.028518,-0.299697,-0.953608,0.013183,-0.113038,0.057246,-22.022635,-13.827662,-38.706512,,,,,,,
1504281646.441164,-0.029698,0.307176,-2.988588,-0.018490,-0.022770,-0.004293,-0.028303,-0.302368,-0.952771,0.013899,-0.110305,0.051404,-22.023230,-13.677362,-38.857635,,,,,,,
1504281646.451174,-0.029593,0.309913,-2.988761,-0.012993,-0.010023,-0.009646,-0.028179,-0.304976,-0.951943,0.008266,-0.108003,0.047814,-22.023230,-13.677362,-38.857635,,,,,,,
1504281646.461184,-0.029441,0.312560,-2.988857,-0.012834,0.009150,-0.004344,-0.028011,-0.307496,-0.951137,0.004863,-0.104705,0.048473,-22.022787,-13.902216,-38.930908,,,,,,,
1504281646.471193,-0.029274,0.315157,-2.988800,-0.002082,0.022902,0.007393,-0.027828,-0.309966,-0.950340,0.001034,-0.102815,0.044899,-22.022787,-13.902216,-38.930908,,,,,,,
1504281646.481203,-0.029201,0.317732,-2.988597,-0.002105,0.022892,0.018069,-0.027735,-0.312413,-0.949541,-0.001333,-0.100047,0.044283,-22.022741,-13.827524,-38.781494,,,,,,,
1504281646.491213,-0.029272,0.320194,-2.988304,-0.003370,0.000514,0.027714,-0.027780,-0.314751,-0.948768,0.000925,-0.096855,0.048087,-22.022741,-13.827524,-38.781494,,,,,,,
1504281646.501223,-0.029413,0.322507,-2.988031,-0.009924,-0.020746,0.029873,-0.027892,-0.316945,-0.948034,0.005203,-0.095606,0.043874,-22.023275,-13.752069,-39.007050,,,,,,,
1504281646.511233,-0.029577,0.324762,-2.987793,-0.018496,-0.030265,0.027737,-0.028027,-0.319083,-0.947312,0.008435,-0.097085,0.044648,-22.023275,-13.752069,-39.007050,,,,,,,
1504281646.521242,-0.029807,0.326952,-2.987602,-0.023759,-0.028085,0.022385,-0.028224,-0.321158,-0.946605,0.006511,-0.095865,0.048473,-22.323004,-13.903269,-39.081696,,,,,,,
1504281646.531252,-0.030064,0.329053,-2.987416,-0.020464,-0.021716,0.019177,-0.028447,-0.323147,-0.945921,0.003743,-0.093113,0.047163,-22.323004,-13.903269,-39.081696,,,,,,,
1504281646.541262,-0.030427,0.331162,-2.987212,-0.017186,-0.017476,0.015975,-0.028770,-0.325142,-0.945227,-0.001519,-0.092201,0.046927,-22.098150,-13.752558,-38.932220,,,,,,,
1504281646.551272,-0.030907,0.333200,-2.986960,-0.018233,-0.017468,0.017044,-0.029202,-0.327069,-0.944549,-0.005634,-0.089969,0.046249,-22.098150,-13.752558,-38.932220,,,,,,,
1504281646.561281,-0.031440,0.335089,-2.986642,-0.022577,-0.024900,0.025593,-0.029687,-0.328853,-0.943914,-0.005256,-0.088536,0.044851,-22.247702,-13.978083,-39.005920,,,,,,,
1504281646.571291,-0.031983,0.336873,-2.986249,-0.039656,-0.023702,0.034103,-0.030181,-0.330537,-0.943310,-0.004106,-0.089003,0.043042,-22.247702,-13.978083,-39.005920,,,,,,,
1504281646.581301,-0.032422,0.338387,-2.985836,-0.065231,-0.020299,0.038324,-0.030578,-0.331966,-0.942796,-0.000993,-0.089359,0.044038,-22.248602,-13.752634,-39.232605,,,,,,,
1504281646.591311,-0.032703,0.339613,-2.985458,-0.084245,-0.002023,0.033990,-0.030829,-0.333122,-0.942380,-0.000879,-0.087624,0.041455,-22.248602,-13.752634,-39.232605,,,,,,,
1504281646.601320,-0.032783,0.340703,-2.985147,-0.081850,0.022476,0.025414,-0.030893,-0.334149,-0.942014,-0.003867,-0.085452,0.036237,-22.248083,-13.828074,-39.007050,,,,,,,
1504281646.611330,-0.032671,0.341789,-2.984842,-0.073179,0.037322,0.026472,-0.030775,-0.335173,-0.941654,-0.003664,-0.080080,0.038974,-22.248083,-13.828074,-39.007050,,,,,,,
1504281646.621340,-0.032635,0.342872,-2.984482,-0.056094,0.037180,0.027573,-0.030730,-0.336193,-0.941292,-0.007569,-0.073246,0.038200,-22.473455,-13.679087,-39.008728,,,,,,,
1504281646.631350,-0.032623,0.344127,-2.984128,-0.032650,0.030595,0.026561,-0.030705,-0.337375,-0.940869,-0.006587,-0.074292,0.031217,-22.473455,-13.679087,-39.008728,,,,,,,
1504281646.641360,-0.032592,0.345594,-2.983858,-0.015526,0.029398,0.018056,-0.030660,-0.338755,-0.940375,-0.005351,-0.075658,0.030844,-22.099020,-13.452402,-39.009491,,,,,,,
1504281646.651369,-0.032522,0.347128,-2.983660,0.001625,0.032461,0.010611,-0.030577,-0.340199,-0.939856,-0.006319,-0.070888,0.030951,-22.099020,-13.452402,-39.009491,,,,,,,
1504281646.661379,-0.032299,0.348707,-2.983509,0.007029,0.038810,0.010611,-0.030350,-0.341683,-0.939325,-0.003601,-0.068550,0.030512,-22.174551,-13.377298,-39.235260,,,,,,,
1504281646.671389,-0.032027,0.350205,-2.983361,0.001729,0.040985,0.010599,-0.030078,-0.343090,-0.938821,-0.002804,-0.065998,0.031457,-22.174551,-13.377298,-39.235260,,,,,,,
1504281646.681368,-0.031735,0.351574,-2.983210,-0.011095,0.038955,0.014850,-0.029789,-0.344376,-0.938359,-0.001156,-0.065383,0.030766,-22.023840,-13.527063,-39.008759,,,,,,,
1504281646.691378,-0.031435,0.352797,-2.983030,-0.026052,0.036942,0.019097,-0.029494,-0.345524,-0.937946,-0.000092,-0.066357,0.029774,-22.023840,-13.527063,-39.008759,,,,,,,
1504281646.701388,-0.031171,0.353861,-2.982845,-0.035675,0.031695,0.018022,-0.029235,-0.346522,-0.937586,0.000320,-0.064214,0.032053,-22.248602,-13.752634,-39.232605,,,,,,,
1504281646.711397,-0.030894,0.354825,-2.982663,-0.035589,0.039155,0.015874,-0.028965,-0.347426,-0.937260,-0.000134,-0.061387,0.030201,-22.248602,-13.752634,-39.232605,,,,,,,
1504281646.721407,-0.030477,0.355824,-2.982481,-0.022604,0.059296,0.014794,-0.028564,-0.348363,-0.936924,-0.002579,-0.059168,0.029301,-22.248648,-13.603083,-39.008728,,,,,,,
1504281646.731376,-0.029916,0.357008,-2.982249,-0.010718,0.079438,0.020118,-0.028026,-0.349472,-0.936527,-0.003591,-0.057403,0.033848,-22.248648,-13.603083,-39.008728,,,,,,,
1504281646.741386,-0.029314,0.358202,-2.981895,-0.006393,0.090050,0.028648,-0.027450,-0.350591,-0.936126,-0.006318,-0.056361,0.034530,-22.398260,-13.753748,-39.007996,,,,,,,
1504281646.751395,-0.028652,0.359295,-2.981482,-0.003145,0.097477,0.033979,-0.026819,-0.351614,-0.935761,-0.006766,-0.051584,0.029160,-22.398260,-13.753748,-39.007996,,,,,,,
1504281646.761405,-0.027940,0.360331,-2.981094,-0.006281,0.100706,0.028633,-0.026142,-0.352584,-0.935415,-0.006573,-0.049912,0.028204,-22.024511,-13.526163,-39.458801,,,,,,,
1504281646.771415,-0.027202,0.361294,-2.980837,-0.014807,0.092264,0.015826,-0.025443,-0.353485,-0.935094,-0.005136,-0.049179,0.030385,-22.024511,-13.526163,-39.458801,,,,,,,
1504281646.781425,-0.026475,0.362165,-2.980755,-0.022309,0.078487,0.003029,-0.024755,-0.354299,-0.934804,-0.002955,-0.048166,0.031194,-21.799368,-13.450602,-39.233765,,,,,,,
1504281646.791434,-0.025837,0.362983,-2.980823,-0.024480,0.063600,-0.010825,-0.024151,-0.355064,-0.934530,-0.002125,-0.047035,0.030584,-21.799368,-13.450602,-39.233765,,,,,,,
1504281646.801444,-0.025211,0.363918,-2.981010,-0.021279,0.056124,-0.020413,-0.023557,-0.355938,-0.934212,-0.000658,-0.049030,0.032876,-22.025076,-13.301172,-39.460480,,,,,,,
1504281646.811454,-0.024548,0.364939,-2.981315,-0.011682,0.049658,-0.026790,-0.022929,-0.356892,-0.933864,0.002375,-0.051143,0.036479,-22.025076,-13.301172,-39.460480,,,,,,,
1504281646.821464,-0.023891,0.365950,-2.981648,-0.017082,0.041175,-0.024652,-0.022307,-0.357837,-0.933518,0.005034,-0.051511,0.036270,-21.949926,-13.450541,-39.609161,,,,,,,
1504281646.831474,-0.023228,0.366768,-2.981903,-0.034186,0.041305,-0.015078,-0.021681,-0.358601,-0.933239,0.007323,-0.050350,0.033001,-21.949926,-13.450541,-39.609161,,,,,,,
1504281646.841483,-0.022614,0.367361,-2.982090,-0.055473,0.046807,-0.014059,-0.021103,-0.359153,-0.933040,0.004044,-0.052056,0.028102,-21.499823,-13.448664,-39.533051,,,,,,,
1504281646.851493,-0.021974,0.367745,-2.982298,-0.074619,0.051229,-0.016236,-0.020503,-0.359512,-0.932915,0.003291,-0.052734,0.026146,-21.499823,-13.448664,-39.533051,,,,,,,
1504281646.861503,-0.021333,0.368059,-2.982533,-0.075675,0.049110,-0.019438,-0.019903,-0.359805,-0.932815,0.003027,-0.052686,0.024459,-21.575186,-13.298990,-39.534363,,,,,,,
1504281646.871513,-0.020722,0.368411,-2.982773,-0.068206,0.046918,-0.020490,-0.019330,-0.360134,-0.932700,0.001813,-0.051274,0.024451,-21.575186,-13.298990,-39.534363,,,,,,,
1504281646.881522,-0.020723,0.369149,-2.983021,-0.010143,-0.034542,-0.024515,-0.019326,-0.360822,-0.932434,0.001229,-0.049655,0.026810,-21.575338,-13.149302,-39.385468,,,,,,,
1504281646.891532,-0.021755,0.370059,-2.983521,-0.046104,-0.147172,-0.051065,-0.020280,-0.361670,-0.932085,0.001497,-0.051003,0.051455,-21.575338,-13.149302,-39.385468,,,,,,,
1504281646.901542,-0.023217,0.371179,-2.984153,-0.053725,-0.172677,-0.057438,-0.021634,-0.362714,-0.931649,0.005383,-0.060656,0.081750,-21.651434,-12.849176,-39.612915,,,,,,,
1504281646.911521,-0.024667,0.371634,-2.984642,-0.069308,-0.118208,-0.052221,-0.022980,-0.363139,-0.931452,-0.011474,-0.045736,0.039286,-21.651434,-12.849176,-39.612915,,,,,,,
1504281646.921531,-0.025876,0.373006,-2.984771,-0.078219,-0.024379,-0.035312,-0.024094,-0.364416,-0.930924,-0.019928,-0.038828,0.034181,-21.951208,-12.850824,-39.463684,,,,,,,
1504281646.931541,-0.025976,0.372807,-2.984854,-0.095634,0.069530,-0.028027,-0.024189,-0.364231,-0.930994,-0.031201,-0.041149,0.005762,-21.951208,-12.850824,-39.463684,,,,,,,
1504281646.941550,-0.025483,0.372551,-2.984919,-0.102754,0.113277,-0.025973,-0.023732,-0.363993,-0.931099,-0.030482,-0.041647,0.010506,-22.026327,-12.851023,-39.538849,,,,,,,
1504281646.951560,-0.024834,0.372124,-2.984981,-0.096343,0.114289,-0.024889,-0.023132,-0.363594,-0.931270,-0.028717,-0.035865,-0.002598,-22.026327,-12.851023,-39.538849,,,,,,,
1504281646.961570,-0.024221,0.371928,-2.985191,-0.078272,0.094976,-0.040827,-0.022562,-0.363412,-0.931355,-0.025610,-0.040275,-0.001506,-21.800528,-13.075312,-39.386597,,,,,,,
1504281646.971580,-0.023274,0.371313,-2.985874,-0.057075,0.058602,-0.070614,-0.021686,-0.362839,-0.931599,-0.023740,-0.040466,0.002507,-21.800528,-13.075312,-39.386597,,,,,,,
1504281646.981589,-0.022686,0.371006,-2.986822,-0.025324,0.012543,-0.092893,-0.021141,-0.362553,-0.931723,-0.019463,-0.043117,0.006339,-21.801321,-12.850000,-39.538269,,,,,,,
1504281646.991599,-0.022564,0.371018,-2.987921,0.006323,-0.039920,-0.104487,-0.021027,-0.362565,-0.931721,-0.020294,-0.049469,0.012883,-21.801321,-12.850000,-39.538269,,,,,,,
1504281647.001609,-0.023388,0.372306,-2.988869,0.037969,-0.086003,-0.103278,-0.021783,-0.363765,-0.931236,-0.020026,-0.049550,0.014046,-21.876730,-12.775049,-39.689026,,,,,,,
1504281647.011619,-0.024127,0.372931,-2.989911,0.066478,-0.119278,-0.096766,-0.022466,-0.364347,-0.930992,-0.021693,-0.048586,0.016976,-21.876730,-12.775049,-39.689026,,,,,,,
1504281647.021629,-0.025010,0.373732,-2.990913,0.080299,-0.124721,-0.095665,-0.023281,-0.365092,-0.930680,-0.023167,-0.048192,0.016892,-21.875448,-13.150492,-39.461243,,,,,,,
1504281647.031638,-0.025765,0.374669,-2.991985,0.094313,-0.112040,-0.104202,-0.023975,-0.365964,-0.930320,-0.025860,-0.045382,0.018012,-21.875448,-13.150492,-39.461243,,,,,,,
1504281647.041648,-0.026915,0.376635,-2.992905,0.099879,-0.088636,-0.110631,-0.025026,-0.367793,-0.929571,-0.025161,-0.041447,0.024114,-22.025747,-13.076014,-39.537140,,,,,,,
1504281647.051658,-0.027217,0.377630,-2.994131,0.094715,-0.072601,-0.119207,-0.025296,-0.368718,-0.929197,-0.026751,-0.043406,0.028852,-22.025747,-13.076014,-39.537140,,,,,,,
1504281647.061668,-0.027396,0.378555,-2.995526,0.086282,-0.070383,-0.136304,-0.025453,-0.369579,-0.928851,-0.025084,-0.042836,0.032977,-22.024847,-13.301462,-39.310455,,,,,,,
1504281647.071677,-0.028124,0.380439,-2.996845,0.077726,-0.079894,-0.144836,-0.026110,-0.371329,-0.928134,-0.020704,-0.040842,0.036334,-22.024847,-13.301462,-39.310455,,,,,,,
1504281647.081687,-0.028918,0.382323,-2.998289,0.084051,-0.096987,-0.154396,-0.026827,-0.373077,-0.927412,-0.017531,-0.038742,0.039870,-21.800863,-13.074854,-39.611603,,,,,,,
1504281647.091697,-0.029639,0.384108,-2.999862,0.071264,-0.101137,-0.161879,-0.027475,-0.374732,-0.926726,-0.013327,-0.037530,0.040434,-21.800863,-13.074854,-39.611603,,,,,,,
1504281647.101707,-0.030231,0.385761,-3.001487,0.057556,-0.085036,-0.166198,-0.028005,-0.376264,-0.926089,-0.013667,-0.035784,0.043521,-22.024511,-13.526163,-39.458801,,,,,,,
1504281647.111716,-0.030611,0.387251,-3.003132,0.042828,-0.060407,-0.166263,-0.028340,-0.377645,-0.925517,-0.014126,-0.033900,0.045649,-22.024511,-13.526163,-39.458801,,,,,,,
1504281647.121726,-0.030686,0.388436,-3.004733,0.015333,-0.027155,-0.159961,-0.028396,-0.378742,-0.925067,-0.014527,-0.031399,0.043750,-22.098379,-13.752253,-39.082245,,,,,,,
1504281647.131736,-0.030435,0.389348,-3.006282,-0.004706,0.003907,-0.154710,-0.028153,-0.379586,-0.924728,-0.013946,-0.029884,0.042907,-22.098379,-13.752253,-39.082245,,,,,,,
1504281647.141746,-0.029937,0.390022,-3.007847,-0.028096,0.013688,-0.153698,-0.027685,-0.380208,-0.924486,-0.009974,-0.027842,0.044176,-22.173788,-13.677286,-39.233002,,,,,,,
1504281647.151725,-0.029245,0.390440,-3.009591,-0.050469,0.008557,-0.166536,-0.027040,-0.380596,-0.924346,-0.003386,-0.028264,0.040908,-22.173788,-13.677286,-39.233002,,,,,,,
1504281647.161735,-0.028496,0.390692,-3.011556,-0.067585,-0.008336,-0.182548,-0.026345,-0.380828,-0.924271,0.002434,-0.030457,0.039215,-21.948767,-13.601587,-39.083008,,,,,,,
1504281647.171745,-0.027894,0.390792,-3.013688,-0.082727,-0.041235,-0.192125,-0.025787,-0.380921,-0.924248,0.006683,-0.029159,0.042488,-21.948767,-13.601587,-39.083008,,,,,,,
1504281647.181754,-0.027617,0.390733,-3.015876,-0.095830,-0.080554,-0.193148,-0.025533,-0.380867,-0.924277,0.008916,-0.028176,0.041068,-21.873495,-13.751093,-39.156677,,,,,,,
1504281647.191764,-0.027797,0.390582,-3.018045,-0.094056,-0.125326,-0.190933,-0.025700,-0.380727,-0.924330,0.008335,-0.025676,0.038054,-21.873495,-13.751093,-39.156677,,,,,,,
1504281647.201774,-0.028435,0.390270,-3.020178,-0.095498,-0.171139,-0.187655,-0.026294,-0.380438,-0.924433,0.008456,-0.018503,0.036585,-21.948050,-13.752024,-38.856873,,,,,,,
1504281647.211784,-0.029374,0.389906,-3.022303,-0.087195,-0.198916,-0.184392,-0.027166,-0.380101,-0.924546,0.011236,-0.014384,0.032960,-21.948050,-13.752024,-38.856873,,,,,,,
1504281647.221793,-0.030233,0.389562,-3.024438,-0.081681,-0.179776,-0.188689,-0.027964,-0.379784,-0.924653,0.011988,-0.011620,0.035706,-21.948614,-13.751276,-39.231873,,,,,,,
1504281647.231803,-0.030527,0.389231,-3.026728,-0.087643,-0.132828,-0.200527,-0.028240,-0.379477,-0.924770,0.015849,-0.008005,0.042507,-21.948614,-13.751276,-39.231873,,,,,,,
1504281647.241813,-0.030235,0.388714,-3.029187,-0.122533,-0.098433,-0.208126,-0.027975,-0.378999,-0.924974,0.022863,-0.012358,0.044740,-22.098501,-13.752100,-39.157227,,,,,,,
1504281647.251823,-0.029973,0.387428,-3.031521,-0.210298,-0.119046,-0.184765,-0.027747,-0.377809,-0.925468,0.023307,-0.013381,0.034385,-22.098501,-13.752100,-39.157227,,,,,,,
1504281647.261832,-0.029731,0.384644,-3.033564,-0.278091,-0.053493,-0.178595,-0.027554,-0.375229,-0.926522,0.006299,0.009919,-0.000449,-21.798040,-13.975611,-39.229828,,,,,,,
1504281647.271842,-0.028250,0.382219,-3.035735,-0.297066,-0.005416,-0.146701,-0.026208,-0.372980,-0.927469,0.046258,-0.017752,0.026834,-21.798040,-13.975611,-39.229828,,,,,,,
1504281647.281852,-0.027044,0.380583,-3.037386,-0.303557,-0.000065,-0.116842,-0.025106,-0.371462,-0.928109,0.031957,-0.065321,0.039009,-22.174170,-13.527292,-39.234131,,,,,,,
1504281647.291862,-0.026526,0.377668,-3.038689,-0.286466,0.005118,-0.112552,-0.024654,-0.368753,-0.929200,0.020351,-0.039541,0.006166,-22.174170,-13.527292,-39.234131,,,,,,,
1504281647.301871,-0.025902,0.375199,-3.039935,-0.236234,0.018553,-0.108219,-0.024098,-0.366458,-0.930122,0.022084,-0.007016,0.006859,-22.174063,-13.527445,-39.159119,,,,,,,
1504281647.311881,-0.025289,0.373321,-3.041087,-0.175465,0.018043,-0.099574,-0.023544,-0.364709,-0.930824,0.012772,-0.003149,0.011222,-22.174063,-13.527445,-39.159119,,,,,,,
1504281647.321891,-0.024505,0.372139,-3.042168,-0.115828,0.013275,-0.084521,-0.022825,-0.363608,-0.931272,0.011885,-0.005196,0.002088,-22.175070,-13.301844,-39.460846,,,,,,,
1504281647.331901,-0.024174,0.371482,-3.042989,-0.051981,-0.001115,-0.073711,-0.022523,-0.362997,-0.931518,0.009797,-0.006372,0.003738,-22.175070,-13.301844,-39.460846,,,,,,,
1504281647.341911,-0.024120,0.371319,-3.043750,-0.008491,-0.030249,-0.069315,-0.022474,-0.362845,-0.931579,0.013990,-0.009851,0.008895,-21.874929,-13.225946,-39.235626,,,,,,,
1504281647.351920,-0.024382,0.371395,-3.044555,0.008380,-0.061280,-0.078837,-0.022717,-0.362915,-0.931545,0.018201,-0.015960,0.007915,-21.874929,-13.225946,-39.235626,,,,,,,
1504281647.361930,-0.024346,0.371956,-3.045687,0.012573,-0.080479,-0.093745,-0.022679,-0.363438,-0.931342,0.020482,-0.019100,0.006507,-21.650274,-13.224482,-39.460114,,,,,,,
1504281647.371940,-0.024775,0.372005,-3.046779,-0.001251,-0.081420,-0.104441,-0.023078,-0.363484,-0.931314,0.019065,-0.021586,0.005991,-21.650274,-13.224482,-39.460114,,,,,,,
1504281647.381950,-0.025054,0.371856,-3.047958,-0.023496,-0.065246,-0.110913,-0.023339,-0.363345,-0.931362,0.016411,-0.022641,0.003430,-22.248938,-13.752176,-39.457642,,,,,,,
1504281647.391959,-0.025069,0.371399,-3.049134,-0.056363,-0.037273,-0.107817,-0.023358,-0.362919,-0.931528,0.018109,-0.021984,0.000437,-22.248938,-13.752176,-39.457642,,,,,,,
1504281647.401939,-0.024435,0.371057,-3.050366,-0.079643,-0.007254,-0.097240,-0.022770,-0.362601,-0.931666,0.016148,-0.021234,-0.000371,-21.874701,-13.450495,-39.458984,,,,,,,
1504281647.411948,-0.023868,0.370204,-3.051336,-0.091122,0.032256,-0.085588,-0.022249,-0.361805,-0.931988,0.016069,-0.024319,-0.003421,-21.874701,-13.450495,-39.458984,,,,,,,
1504281647.421958,-0.022530,0.369767,-3.052376,-0.094033,0.071701,-0.079262,-0.021006,-0.361399,-0.932175,0.015574,-0.026159,-0.000076,-22.250418,-13.301737,-39.686005,,,,,,,
1504281647.431968,-0.020918,0.369343,-3.053354,-0.085248,0.103596,-0.077171,-0.019506,-0.361002,-0.932361,0.013922,-0.023168,0.001437,-22.250418,-13.301737,-39.686005,,,,,,,
1504281647.441978,-0.019107,0.369032,-3.054340,-0.070351,0.118265,-0.079272,-0.017819,-0.360712,-0.932507,0.014325,-0.021093,0.001644,-21.800222,-13.150461,-39.311035,,,,,,,
1504281647.451987,-0.017274,0.368828,-3.055395,-0.056539,0.106437,-0.085636,-0.016111,-0.360523,-0.932611,0.017012,-0.019284,0.001657,-21.800222,-13.150461,-39.311035,,,,,,,
1504281647.461997,-0.015506,0.368648,-3.056547,-0.045999,0.087176,-0.089857,-0.014464,-0.360354,-0.932703,0.021040,-0.015805,-0.001150,-21.800604,-13.224710,-39.685455,,,,,,,
1504281647.472007,-0.013980,0.368569,-3.057669,-0.034495,0.060438,-0.085525,-0.013041,-0.360281,-0.932753,0.022333,-0.015314,-0.000643,-21.800604,-13.224710,-39.685455,,,,,,,
1504281647.482017,-0.012654,0.368556,-3.058738,-0.023992,0.043297,-0.079077,-0.011804,-0.360269,-0.932774,0.023462,-0.014243,-0.001293,-21.575613,-12.999445,-39.311584,,,,,,,
1504281647.492027,-0.011490,0.368636,-3.059669,-0.010213,0.038911,-0.067308,-0.010718,-0.360343,-0.932758,0.022345,-0.011193,0.001301,-21.575613,-12.999445,-39.311584,,,,,,,
1504281647.502036,-0.010415,0.368890,-3.060439,0.004744,0.048367,-0.055561,-0.009715,-0.360581,-0.932678,0.017619,-0.010086,0.005508,-21.650274,-13.224482,-39.460114,,,,,,,
1504281647.512046,-0.009301,0.369342,-3.061091,0.026166,0.063103,-0.048081,-0.008674,-0.361002,-0.932525,0.014015,-0.009924,0.008727,-21.650274,-13.224482,-39.460114,,,,,,,
1504281647.522056,-0.008086,0.369901,-3.061615,0.031576,0.080096,-0.035295,-0.007539,-0.361523,-0.932333,0.013749,-0.009555,0.010748,-21.649847,-13.299784,-39.309540,,,,,,,
1504281647.532066,-0.006825,0.370725,-3.062006,0.046522,0.087422,-0.024610,-0.006361,-0.362291,-0.932043,0.012403,-0.014280,0.014654,-21.649847,-13.299784,-39.309540,,,,,,,
1504281647.542075,-0.005638,0.371538,-3.062306,0.041011,0.071474,-0.013920,-0.005253,-0.363049,-0.931755,0.015355,-0.013996,0.015968,-21.800421,-13.075449,-39.311584,,,,,,,
1504281647.552085,-0.004757,0.372194,-3.062554,0.020390,0.031146,-0.007484,-0.004431,-0.363660,-0.931521,0.019095,-0.018329,0.009021,-21.800421,-13.075449,-39.311584,,,,,,,
1504281647.562095,-0.004268,0.372631,-3.062820,-0.007660,-0.010177,-0.010665,-0.003975,-0.364067,-0.931364,0.020897,-0.024986,0.002119,-21.350042,-13.447687,-39.682678,,,,,,,
1504281647.572105,-0.004079,0.372869,-3.063185,-0.029203,-0.043020,-0.021322,-0.003798,-0.364289,-0.931278,0.021987,-0.027862,0.000172,-21.350042,-13.447687,-39.682678,,,,,,,
1504281647.582114,-0.004177,0.372935,-3.063669,-0.042127,-0.067406,-0.035181,-0.003890,-0.364350,-0.931254,0.018325,-0.027297,-0.001760,-21.274893,-13.372797,-39.458069,,,,,,,
1504281647.592124,-0.004650,0.372834,-3.064195,-0.048705,-0.093984,-0.041552,-0.004331,-0.364256,-0.931289,0.012082,-0.024111,-0.006364,-21.274893,-13.372797,-39.458069,,,,,,,
1504281647.602134,-0.005373,0.372566,-3.064734,-0.057300,-0.104564,-0.045818,-0.005004,-0.364006,-0.931383,0.006912,-0.020927,-0.012022,-21.499899,-13.373804,-39.458618,,,,,,,
1504281647.612144,-0.006141,0.372135,-3.065253,-0.049768,-0.096102,-0.044753,-0.005721,-0.363606,-0.931535,0.002608,-0.013149,-0.018523,-21.499899,-13.373804,-39.458618,,,,,,,
1504281647.622153,-0.006852,0.371682,-3.065592,-0.035727,-0.065331,-0.029839,-0.006384,-0.363183,-0.931696,-0.004617,-0.004004,-0.018744,-21.725561,-13.149668,-39.535858,,,,,,,
1504281647.632163,-0.007421,0.371285,-3.065682,-0.022727,-0.029228,-0.011732,-0.006915,-0.362813,-0.931836,-0.012006,0.000050,-0.019580,-21.725561,-13.149668,-39.535858,,,,,,,
1504281647.642142,-0.007782,0.370927,-3.065560,-0.007610,0.003663,0.004250,-0.007253,-0.362480,-0.931963,-0.015376,0.005455,-0.023252,-21.800299,-13.299860,-39.609924,,,,,,,
1504281647.652152,-0.008015,0.370661,-3.065323,0.003129,0.017418,0.011718,-0.007471,-0.362232,-0.932058,-0.016943,0.007450,-0.021494,-21.800299,-13.299860,-39.609924,,,,,,,
1504281647.662162,-0.008191,0.370456,-3.065093,0.003053,0.008892,0.012802,-0.007635,-0.362041,-0.932131,-0.012582,0.007487,-0.016859,-21.800222,-13.150461,-39.311035,,,,,,,
1504281647.672172,-0.008423,0.370295,-3.064885,0.006116,-0.006056,0.016037,-0.007852,-0.361890,-0.932188,-0.007406,0.005384,-0.016421,-21.800222,-13.150461,-39.311035,,,,,,,
1504281647.682182,-0.008743,0.370369,-3.064619,0.022004,-0.015785,0.023555,-0.008150,-0.361959,-0.932158,-0.004606,0.002493,-0.008393,-21.799963,-13.300303,-39.384918,,,,,,,
1504281647.692191,-0.009183,0.370737,-3.064255,0.046399,-0.027718,0.033225,-0.008559,-0.362302,-0.932021,-0.003328,0.004071,0.004577,-21.799963,-13.300303,-39.384918,,,,,,,
1504281647.702201,-0.009769,0.371340,-3.063816,0.061126,-0.048096,0.042893,-0.009103,-0.362865,-0.931797,0.000177,0.004039,0.011982,-21.874701,-13.450495,-39.458984,,,,,,,
1504281647.712211,-0.010555,0.372105,-3.063326,0.069506,-0.066282,0.045075,-0.009832,-0.363577,-0.931512,0.001562,0.000357,0.012369,-21.874701,-13.450495,-39.458984,,,,,,,
1504281647.722221,-0.011314,0.372927,-3.062926,0.060990,-0.069399,0.036525,-0.010536,-0.364343,-0.931205,0.005150,-0.005607,0.013725,-22.099920,-13.451212,-39.609528,,,,,,,
1504281647.732234,-0.011772,0.373677,-3.062677,0.042048,-0.043657,0.025772,-0.010959,-0.365041,-0.930927,0.009021,-0.009608,0.015583,-22.099920,-13.451212,-39.609528,,,,,,,
1504281647.742244,-0.011879,0.374271,-3.062511,0.015640,-0.013597,0.021402,-0.011057,-0.365594,-0.930709,0.009439,-0.014457,0.017974,-21.799139,-13.675165,-39.457123,,,,,,,
1504281647.752254,-0.011666,0.374629,-3.062334,-0.012963,0.013277,0.024506,-0.010856,-0.365927,-0.930580,0.011055,-0.019311,0.016212,-21.799139,-13.675165,-39.457123,,,,,,,
1504281647.762264,-0.011261,0.374817,-3.062101,-0.032071,0.029412,0.031915,-0.010479,-0.366102,-0.930516,0.013272,-0.021486,0.014409,-21.874289,-13.750055,-39.681702,,,,,,,
1504281647.772273,-0.010798,0.374869,-3.061796,-0.035351,0.026232,0.043654,-0.010048,-0.366151,-0.930501,0.017266,-0.018309,0.014577,-21.874289,-13.750055,-39.681702,,,,,,,
1504281647.782283,-0.010473,0.374881,-3.061362,-0.030196,0.011260,0.056495,-0.009746,-0.366161,-0.930500,0.019527,-0.015446,0.012226,-22.099707,-13.451502,-39.459534,,,,,,,
1504281647.792293,-0.010281,0.374995,-3.060826,-0.013248,0.001523,0.066146,-0.009566,-0.366268,-0.930460,0.020995,-0.013981,0.008524,-22.099707,-13.451502,-39.459534,,,,,,,
1504281647.802303,-0.010181,0.375288,-3.060214,0.005924,0.000296,0.071515,-0.009473,-0.366540,-0.930354,0.019574,-0.010977,0.007624,-21.950415,-13.300379,-39.685272,,,,,,,
1504281647.812312,-0.010051,0.375596,-3.059537,0.015614,0.013002,0.074710,-0.009350,-0.366827,-0.930242,0.016217,-0.010095,0.006444,-21.950415,-13.300379,-39.685272,,,,,,,
1504281647.822322,-0.009885,0.375949,-3.058795,0.012502,0.025813,0.077882,-0.009195,-0.367155,-0.930114,0.012887,-0.011293,0.002914,-21.875158,-13.225641,-39.385651,,,,,,,
1504281647.832332,-0.009764,0.376195,-3.057951,0.005027,0.030129,0.086400,-0.009081,-0.367384,-0.930025,0.008044,-0.010515,-0.000441,-21.875158,-13.225641,-39.385651,,,,,,,
1504281647.842342,-0.009794,0.376333,-3.057029,0.003878,0.021611,0.089615,-0.009109,-0.367512,-0.929974,0.003631,-0.008831,-0.005100,-21.724737,-13.524515,-39.608032,,,,,,,
1504281647.852352,-0.010032,0.376472,-3.055990,0.015485,0.010850,0.098193,-0.009330,-0.367642,-0.929921,0.000220,-0.004749,-0.009944,-21.724737,-13.524515,-39.608032,,,,,,,
1504281647.862361,-0.010488,0.376687,-3.054842,0.033513,0.001104,0.104646,-0.009752,-0.367842,-0.929837,-0.004179,0.000746,-0.009677,-21.575613,-13.223703,-39.684906,,,,,,,
1504281647.872371,-0.011087,0.376918,-3.053600,0.039920,0.005307,0.109989,-0.010309,-0.368057,-0.929746,-0.010809,0.003463,-0.012713,-21.575613,-13.223703,-39.684906,,,,,,,
1504281647.882381,-0.011624,0.377120,-3.052285,0.035853,0.031976,0.112072,-0.010807,-0.368245,-0.929666,-0.018155,0.002736,-0.015814,-21.800085,-13.300165,-39.459930,,,,,,,
1504281647.892360,-0.011877,0.377395,-3.050922,0.038292,0.070315,0.112011,-0.011041,-0.368500,-0.929562,-0.022010,0.001023,-0.014163,-21.800085,-13.300165,-39.459930,,,,,,,
1504281647.902370,-0.011801,0.377680,-3.049576,0.037519,0.104423,0.107683,-0.010969,-0.368765,-0.929458,-0.024493,0.000890,-0.010117,-21.800299,-13.075602,-39.236572,,,,,,,
1504281647.912380,-0.011434,0.377954,-3.048284,0.035570,0.125751,0.104443,-0.010627,-0.369020,-0.929361,-0.022668,0.001909,-0.006964,-21.800299,-13.075602,-39.236572,,,,,,,
1504281647.922389,-0.010908,0.378387,-3.047040,0.053717,0.125602,0.102342,-0.010136,-0.369422,-0.929207,-0.018047,0.001700,-0.000908,-21.650457,-13.149485,-39.460693,,,,,,,
1504281647.932399,-0.010399,0.378901,-3.045822,0.050396,0.111773,0.104497,-0.009661,-0.369900,-0.929021,-0.012373,0.000607,0.004949,-21.650457,-13.149485,-39.460693,,,,,,,
1504281647.942409,-0.010017,0.379468,-3.044620,0.048096,0.091544,0.105597,-0.009305,-0.370426,-0.928815,-0.008411,-0.002117,0.007032,-22.025381,-13.226023,-39.536011,,,,,,,
1504281647.952419,-0.009825,0.380073,-3.043404,0.047908,0.069165,0.107772,-0.009124,-0.370988,-0.928593,-0.006181,-0.005019,0.008442,-22.025381,-13.226023,-39.536011,,,,,,,
1504281647.962428,-0.009854,0.380775,-3.042145,0.047770,0.054242,0.112069,-0.009148,-0.371640,-0.928332,-0.007133,-0.008563,0.013567,-21.949667,-13.376139,-39.309692,,,,,,,
1504281647.972438,-0.010057,0.381500,-3.040859,0.044417,0.036152,0.114231,-0.009334,-0.372313,-0.928060,-0.007481,-0.009904,0.017309,-21.949667,-13.376139,-39.309692,,,,,,,
1504281647.982448,-0.010418,0.382252,-3.039561,0.044332,0.024431,0.113185,-0.009666,-0.373011,-0.927777,-0.008904,-0.011999,0.019451,-21.725378,-13.224665,-39.535278,,,,,,,
1504281647.992458,-0.010929,0.383054,-3.038332,0.049604,0.009479,0.102548,-0.010137,-0.373755,-0.927472,-0.010341,-0.012109,0.020352,-21.725378,-13.224665,-39.535278,,,,,,,
1504281648.002468,-0.011493,0.383849,-3.037258,0.050686,0.000961,0.086555,-0.010657,-0.374492,-0.927169,-0.010904,-0.009114,0.020125,-22.024618,-13.526026,-39.533783,,,,,,,
1504281648.012477,-0.012114,0.384631,-3.036361,0.058196,-0.005478,0.068436,-0.011229,-0.375218,-0.926869,-0.014070,-0.005825,0.018727,-22.024618,-13.526026,-39.533783,,,,,,,
1504281648.022487,-0.012696,0.385347,-3.035598,0.057215,-0.002263,0.056689,-0.011765,-0.375880,-0.926593,-0.015518,-0.002461,0.014347,-21.875418,-13.300043,-39.685089,,,,,,,
1504281648.032497,-0.013282,0.386024,-3.034908,0.055078,-0.005439,0.052423,-0.012304,-0.376508,-0.926332,-0.016504,-0.002398,0.012788,-21.875418,-13.300043,-39.685089,,,,,,,
1504281648.042507,-0.013883,0.386627,-3.034216,0.043350,-0.005344,0.051338,-0.012858,-0.377067,-0.926097,-0.017828,-0.005059,0.009776,-22.024511,-13.526163,-39.458801,,,,,,,
1504281648.052516,-0.014504,0.387061,-3.033512,0.028463,0.000106,0.050237,-0.013430,-0.377468,-0.925925,-0.019910,-0.004413,0.007911,-22.024511,-13.526163,-39.458801,,,,,,,
1504281648.062526,-0.014984,0.387353,-3.032884,0.012615,0.014095,0.041648,-0.013873,-0.377738,-0.925808,-0.020062,-0.004052,0.008191,-22.024969,-13.301325,-39.385468,,,,,,,
1504281648.072536,-0.015261,0.387498,-3.032362,0.003213,0.032296,0.030929,-0.014129,-0.377873,-0.925750,-0.021882,-0.001979,0.010131,-22.024969,-13.301325,-39.385468,,,,,,,
1504281648.082546,-0.015454,0.387614,-3.031911,0.008636,0.038650,0.023458,-0.014307,-0.377981,-0.925703,-0.024023,0.000616,0.009382,-22.025183,-13.301020,-39.535461,,,,,,,
1504281648.092555,-0.015603,0.387834,-3.031557,0.025689,0.031056,0.014965,-0.014444,-0.378184,-0.925618,-0.022803,0.003779,0.011189,-22.025183,-13.301020,-39.535461,,,,,,,
1504281648.102565,-0.015804,0.388135,-3.031370,0.033042,0.008629,0.002210,-0.014628,-0.378463,-0.925501,-0.016882,0.005874,0.013941,-22.025122,-13.375864,-39.609894,,,,,,,
1504281648.112575,-0.015790,0.388477,-3.031403,0.035133,-0.002035,-0.006307,-0.014613,-0.378779,-0.925372,-0.016897,0.006190,0.013812,-22.025122,-13.375864,-39.609894,,,,,,,
1504281648.122585,-0.016042,0.388882,-3.031446,0.036231,-0.004167,-0.015906,-0.014844,-0.379154,-0.925214,-0.013019,0.003147,0.012479,-22.024282,-13.526468,-39.308777,,,,,,,
1504281648.132564,-0.016167,0.389283,-3.031602,0.028877,0.003362,-0.026605,-0.014956,-0.379526,-0.925060,-0.011838,0.001443,0.015865,-22.024282,-13.526468,-39.308777,,,,,,,
1504281648.142574,-0.016179,0.389627,-3.031877,0.021487,0.007693,-0.035163,-0.014966,-0.379844,-0.924930,-0.010928,-0.000680,0.014468,-21.874182,-13.525949,-39.233368,,,,,,,
1504281648.152583,-0.016135,0.389948,-3.032190,0.017224,0.008791,-0.034104,-0.014923,-0.380141,-0.924808,-0.009063,-0.000719,0.016376,-21.874182,-13.525949,-39.233368,,,,,,,
1504281648.162593,-0.016173,0.390295,-3.032479,0.017060,-0.009328,-0.029802,-0.014956,-0.380461,-0.924676,-0.006040,-0.002184,0.018182,-21.799017,-13.675303,-39.382111,,,,,,,
1504281648.172603,-0.016385,0.390581,-3.032698,0.010464,-0.028464,-0.021240,-0.015151,-0.380725,-0.924564,-0.003114,-0.002606,0.015262,-21.799017,-13.675303,-39.382111,,,,,,,
1504281648.182613,-0.016673,0.390772,-3.032853,0.002926,-0.032672,-0.013774,-0.015415,-0.380902,-0.924487,-0.001125,-0.003131,0.012271,-22.024694,-13.451166,-39.459351,,,,,,,
1504281648.192623,-0.016865,0.390808,-3.032946,-0.009765,-0.015524,-0.008489,-0.015592,-0.380935,-0.924470,-0.001162,-0.000916,0.012468,-22.024694,-13.451166,-39.459351,,,,,,,
1504281648.202632,-0.016853,0.390680,-3.033037,-0.025538,0.011249,-0.011765,-0.015582,-0.380817,-0.924519,-0.003751,0.000187,0.012242,-21.648718,-13.749781,-39.306152,,,,,,,
1504281648.212642,-0.016670,0.390381,-3.033145,-0.036054,0.028388,-0.015015,-0.015416,-0.380541,-0.924636,-0.005687,0.001482,0.009108,-21.648718,-13.749781,-39.306152,,,,,,,
1504281648.222652,-0.016358,0.390021,-3.033260,-0.037046,0.039049,-0.012900,-0.015129,-0.380208,-0.924777,-0.006767,0.001714,0.006732,-21.950109,-13.375528,-39.609711,,,,,,,
1504281648.232662,-0.016026,0.389754,-3.033329,-0.030643,0.041123,-0.009690,-0.014823,-0.379961,-0.924884,-0.006371,0.000902,0.009814,-21.950109,-13.375528,-39.609711,,,,,,,
1504281648.242671,-0.015799,0.389637,-3.033341,-0.020108,0.028242,-0.003244,-0.014614,-0.379853,-0.924931,-0.005237,-0.002654,0.010091,-21.874594,-13.450647,-39.383972,,,,,,,
1504281648.252681,-0.015704,0.389623,-3.033343,-0.014869,0.015412,-0.004279,-0.014527,-0.379840,-0.924938,-0.005508,-0.005109,0.008328,-21.874594,-13.450647,-39.383972,,,,,,,
1504281648.262691,-0.015668,0.389617,-3.033438,-0.011763,-0.000591,-0.010650,-0.014493,-0.379835,-0.924941,-0.002078,-0.003283,0.010009,-21.799398,-13.525309,-39.383209,,,,,,,
1504281648.272701,-0.015681,0.389665,-3.033621,-0.009670,-0.011256,-0.019166,-0.014505,-0.379878,-0.924923,-0.000266,-0.004491,0.010021,-21.799398,-13.525309,-39.383209,,,,,,,
1504281648.282710,-0.015768,0.389700,-3.033860,-0.008640,-0.018719,-0.023421,-0.014586,-0.379911,-0.924908,-0.001207,-0.004046,0.009335,-21.799734,-13.300608,-39.234894,,,,,,,
1504281648.292720,-0.015898,0.389740,-3.034144,-0.002215,-0.019831,-0.029812,-0.014705,-0.379948,-0.924891,-0.002843,-0.001522,0.008036,-21.799734,-13.300608,-39.234894,,,,,,,
1504281648.302730,-0.016013,0.389859,-3.034511,0.008492,-0.019912,-0.037265,-0.014811,-0.380058,-0.924844,-0.003225,-0.001152,0.006890,-21.574133,-13.674143,-39.456543,,,,,,,
1504281648.312740,-0.016150,0.390124,-3.034920,0.023424,-0.023228,-0.041502,-0.014936,-0.380303,-0.924741,-0.003206,0.000420,0.009000,-21.574133,-13.674143,-39.456543,,,,,,,
1504281648.322750,-0.016291,0.390484,-3.035332,0.026581,-0.027519,-0.039354,-0.015064,-0.380636,-0.924602,-0.001827,-0.001459,0.008312,-21.574850,-13.523691,-39.682648,,,,,,,
1504281648.332759,-0.016367,0.390748,-3.035745,0.013786,-0.025284,-0.037246,-0.015133,-0.380880,-0.924501,0.001049,-0.004557,0.005784,-21.574850,-13.523691,-39.682648,,,,,,,
1504281648.342769,-0.016390,0.390796,-3.036101,-0.017067,-0.011183,-0.031987,-0.015154,-0.380925,-0.924482,0.000444,-0.006877,0.001218,-22.024511,-13.526163,-39.458801,,,,,,,
1504281648.352779,-0.016283,0.390687,-3.036411,-0.028639,0.009158,-0.032043,-0.015055,-0.380824,-0.924525,-0.003438,-0.008153,-0.000570,-22.024511,-13.526163,-39.458801,,,,,,,
1504281648.362789,-0.015919,0.390440,-3.036807,-0.043299,0.036995,-0.042791,-0.014720,-0.380596,-0.924624,-0.005696,-0.009755,-0.001492,-21.499823,-13.448664,-39.533051,,,,,,,
1504281648.372798,-0.015287,0.390086,-3.037288,-0.044176,0.057253,-0.048165,-0.014138,-0.380268,-0.924768,-0.005469,-0.007274,-0.003134,-21.499823,-13.448664,-39.533051,,,,,,,
1504281648.382778,-0.014544,0.389796,-3.037844,-0.035581,0.059322,-0.056692,-0.013452,-0.380000,-0.924889,-0.005224,-0.006368,-0.000542,-21.723837,-13.749979,-39.381348,,,,,,,
1504281648.392787,-0.013886,0.389604,-3.038458,-0.026082,0.044328,-0.059851,-0.012845,-0.379822,-0.924970,-0.004825,-0.004654,-0.001909,-21.723837,-13.749979,-39.381348,,,,,,,
1504281648.402797,-0.013430,0.389518,-3.039105,-0.004944,0.018580,-0.060836,-0.012423,-0.379743,-0.925009,-0.002744,-0.001712,-0.003656,-21.349783,-13.373285,-39.383240,,,,,,,
1504281648.412807,-0.013240,0.389629,-3.039687,0.014063,-0.002894,-0.055428,-0.012247,-0.379845,-0.924969,-0.003240,-0.000801,-0.001362,-21.349783,-13.373285,-39.383240,,,,,,,
1504281648.422817,-0.013238,0.389907,-3.040217,0.029942,-0.015817,-0.051108,-0.012244,-0.380103,-0.924863,-0.003625,-0.001214,-0.002719,-21.650274,-13.224482,-39.460114,,,,,,,
1504281648.432826,-0.013262,0.390286,-3.040730,0.037436,-0.012683,-0.051100,-0.012264,-0.380453,-0.924719,-0.004795,-0.000681,-0.001688,-21.650274,-13.224482,-39.460114,,,,,,,
1504281648.442836,-0.013238,0.390674,-3.041266,0.039482,-0.007465,-0.054279,-0.012240,-0.380812,-0.924572,-0.005003,-0.000399,-0.002797,-21.499929,-13.448511,-39.608063,,,,,,,
1504281648.452846,-0.013157,0.391021,-3.041814,0.032085,0.000056,-0.056439,-0.012163,-0.381133,-0.924440,-0.007490,-0.002427,-0.002546,-21.499929,-13.448511,-39.608063,,,,,,,
1504281648.462856,-0.012929,0.391316,-3.042399,0.022602,0.012924,-0.059680,-0.011951,-0.381405,-0.924331,-0.006588,-0.002475,0.001388,-21.724890,-13.374826,-39.459167,,,,,,,
1504281648.472865,-0.012619,0.391569,-3.043015,0.013023,0.015135,-0.060767,-0.011663,-0.381639,-0.924238,-0.004862,-0.003997,0.004270,-21.724890,-13.374826,-39.459167,,,,,,,
1504281648.482875,-0.012302,0.391709,-3.043712,0.002334,0.007771,-0.068245,-0.011370,-0.381769,-0.924188,-0.003431,-0.003592,0.006112,-21.649252,-13.674341,-39.531708,,,,,,,
1504281648.492885,-0.012031,0.391780,-3.044469,0.003380,0.002438,-0.072503,-0.011119,-0.381834,-0.924164,-0.003087,-0.000948,0.004318,-21.649252,-13.674341,-39.531708,,,,,,,
1504281648.502895,-0.011832,0.391937,-3.045256,0.010801,-0.006144,-0.076744,-0.010934,-0.381979,-0.924106,-0.004477,-0.000574,0.007724,-21.423956,-13.748468,-39.455627,,,,,,,
1504281648.512905,-0.011773,0.392138,-3.046053,0.013936,-0.015759,-0.078856,-0.010879,-0.382165,-0.924030,-0.006699,0.001320,0.010792,-21.423956,-13.748468,-39.455627,,,,,,,
1504281648.522914,-0.011810,0.392376,-3.046859,0.022386,-0.026485,-0.078822,-0.010912,-0.382385,-0.923939,-0.006269,0.001617,0.007648,-21.499517,-13.523813,-39.457489,,,,,,,
1504281648.532924,-0.011954,0.392705,-3.047637,0.031954,-0.030828,-0.078796,-0.011044,-0.382688,-0.923811,-0.009800,0.002272,0.010649,-21.499517,-13.523813,-39.457489,,,,,,,
1504281648.542934,-0.012183,0.393070,-3.048415,0.029793,-0.035073,-0.079859,-0.011253,-0.383026,-0.923669,-0.011360,0.001571,0.012902,-21.574255,-13.674006,-39.531525,,,,,,,
1504281648.552944,-0.012455,0.393522,-3.049230,0.031870,-0.043614,-0.081974,-0.011502,-0.383444,-0.923493,-0.009280,-0.001124,0.013794,-21.574255,-13.674006,-39.531525,,,,,,,
1504281648.562953,-0.012742,0.393937,-3.050098,0.023334,-0.047801,-0.088385,-0.011766,-0.383827,-0.923330,-0.009215,-0.002556,0.015173,-21.798605,-13.750605,-39.231506,,,,,,,
1504281648.572963,-0.013013,0.394255,-3.051062,0.013746,-0.050912,-0.095868,-0.012015,-0.384120,-0.923205,-0.008264,-0.002934,0.014727,-21.798605,-13.750605,-39.231506,,,,,,,
1504281648.582973,-0.013177,0.394478,-3.052066,0.003130,-0.044432,-0.095897,-0.012164,-0.384326,-0.923117,-0.005292,-0.003659,0.014029,-21.798758,-13.825159,-39.455994,,,,,,,
1504281648.592983,-0.013328,0.394588,-3.053030,-0.009683,-0.043266,-0.091651,-0.012303,-0.384428,-0.923073,-0.005611,-0.004442,0.014626,-21.798758,-13.825159,-39.455994,,,,,,,
1504281648.602992,-0.013481,0.394594,-3.053975,-0.020383,-0.045313,-0.088464,-0.012445,-0.384433,-0.923069,-0.003684,-0.004514,0.014149,-21.498465,-13.898966,-39.379669,,,,,,,
1504281648.613002,-0.013653,0.394513,-3.054886,-0.023633,-0.049552,-0.085259,-0.012604,-0.384358,-0.923098,-0.002075,-0.004008,0.011492,-21.498465,-13.898966,-39.379669,,,,,,,
1504281648.623012,-0.013913,0.394422,-3.055764,-0.018387,-0.058125,-0.080965,-0.012844,-0.384274,-0.923130,-0.001728,-0.002078,0.009876,-21.273169,-13.973093,-39.303528,,,,,,,
1504281648.632991,-0.014200,0.394372,-3.056643,-0.013072,-0.061365,-0.082018,-0.013110,-0.384229,-0.923145,0.000232,0.000013,0.010715,-21.273169,-13.973093,-39.303528,,,,,,,
1504281648.643001,-0.014413,0.394336,-3.057553,-0.007675,-0.055013,-0.084155,-0.013307,-0.384195,-0.923156,0.001451,0.001230,0.008926,-21.798956,-13.750162,-39.456543,,,,,,,
1504281648.653011,-0.014483,0.394364,-3.058498,-0.001144,-0.040146,-0.086304,-0.013371,-0.384221,-0.923144,0.000538,0.000874,0.008533,-21.798956,-13.750162,-39.456543,,,,,,,
1504281648.663021,-0.014400,0.394423,-3.059434,-0.007469,-0.029440,-0.084200,-0.013293,-0.384276,-0.923123,0.001651,-0.001314,0.012783,-21.723043,-13.975275,-39.229645,,,,,,,
1504281648.673030,-0.014323,0.394428,-3.060318,-0.014993,-0.032581,-0.077803,-0.013222,-0.384280,-0.923122,0.003091,-0.004621,0.008968,-21.723043,-13.975275,-39.229645,,,,,,,
1504281648.683040,-0.014298,0.394433,-3.061169,-0.015112,-0.044306,-0.072446,-0.013200,-0.384285,-0.923120,0.007341,-0.006111,0.007349,-21.723944,-13.749826,-39.456360,,,,,,,
1504281648.693050,-0.014370,0.394517,-3.062027,-0.008840,-0.061405,-0.073474,-0.013266,-0.384363,-0.923087,0.010275,-0.006476,0.011969,-21.723944,-13.749826,-39.456360,,,,,,,
1504281648.703060,-0.014462,0.394571,-3.062949,-0.008893,-0.068861,-0.074529,-0.013350,-0.384412,-0.923065,0.015212,-0.004244,0.009506,-21.647894,-13.900385,-39.005005,,,,,,,
1504281648.713069,-0.014623,0.394592,-3.063891,-0.007857,-0.074193,-0.076654,-0.013499,-0.384431,-0.923055,0.014765,-0.001860,0.009481,-21.647894,-13.900385,-39.005005,,,,,,,
1504281648.723079,-0.014760,0.394561,-3.064833,-0.016360,-0.070923,-0.077744,-0.013626,-0.384403,-0.923065,0.013855,-0.001141,0.012329,-21.648230,-13.899927,-39.230011,,,,,,,
1504281648.733077,-0.014854,0.394424,-3.065705,-0.022704,-0.059155,-0.070305,-0.013713,-0.384276,-0.923116,0.012538,-0.001084,0.008611,-21.648230,-13.899927,-39.230011,,,,,,,
1504281648.743087,-0.014888,0.394253,-3.066475,-0.027969,-0.045266,-0.061800,-0.013746,-0.384119,-0.923181,0.009610,-0.002127,0.009363,-22.023046,-13.976618,-39.230377,,,,,,,
1504281648.753096,-0.014850,0.394064,-3.067191,-0.032211,-0.038842,-0.056483,-0.013712,-0.383944,-0.923255,0.010751,-0.002668,0.010916,-22.023046,-13.976618,-39.230377,,,,,,,
1504281648.763106,-0.014843,0.393847,-3.067822,-0.032273,-0.042044,-0.049006,-0.013706,-0.383744,-0.923338,0.011920,-0.002990,0.007185,-21.798010,-13.900904,-39.080383,,,,,,,
1504281648.773116,-0.014847,0.393628,-3.068379,-0.026980,-0.042094,-0.040459,-0.013711,-0.383542,-0.923422,0.013695,-0.001590,0.005545,-21.798010,-13.900904,-39.080383,,,,,,,
1504281648.783126,-0.014840,0.393463,-3.068896,-0.020583,-0.040018,-0.036183,-0.013705,-0.383389,-0.923485,0.014712,-0.000675,0.006173,-21.872259,-14.201242,-39.078308,,,,,,,
1504281648.793135,-0.014853,0.393291,-3.069341,-0.017462,-0.045377,-0.028698,-0.013719,-0.383230,-0.923551,0.016206,0.002188,0.006589,-21.872259,-14.201242,-39.078308,,,,,,,
1504281648.803145,-0.014935,0.393099,-3.069693,-0.018647,-0.052836,-0.016947,-0.013796,-0.383053,-0.923624,0.018587,0.002514,0.005426,-21.722662,-14.125269,-39.228516,,,,,,,
1504281648.813155,-0.015135,0.393016,-3.069972,-0.008059,-0.060384,-0.012648,-0.013980,-0.382976,-0.923652,0.018421,0.000011,0.004127,-21.722662,-14.125269,-39.228516,,,,,,,
1504281648.823165,-0.015308,0.393123,-3.070256,0.005900,-0.051967,-0.016909,-0.014139,-0.383075,-0.923609,0.016993,-0.000256,0.009180,-21.798269,-13.975306,-39.379852,,,,,,,
1504281648.833175,-0.015395,0.393330,-3.070568,0.010194,-0.048803,-0.016909,-0.014219,-0.383266,-0.923529,0.017713,-0.000386,0.014029,-21.798269,-13.975306,-39.379852,,,,,,,
1504281648.843184,-0.015493,0.393502,-3.070857,0.000640,-0.042329,-0.015871,-0.014308,-0.383425,-0.923461,0.015208,-0.004789,0.009017,-21.798040,-13.975611,-39.229828,,,,,,,
1504281648.853194,-0.015506,0.393597,-3.071113,-0.013113,-0.027297,-0.014855,-0.014320,-0.383513,-0.923424,0.013466,-0.008226,0.006951,-21.798040,-13.975611,-39.229828,,,,,,,
1504281648.863204,-0.015377,0.393577,-3.071341,-0.031119,-0.009035,-0.011717,-0.014200,-0.383494,-0.923434,0.011286,-0.010564,0.009784,-21.873343,-13.900797,-39.305573,,,,,,,
1504281648.873214,-0.015102,0.393350,-3.071520,-0.052369,0.004989,-0.006443,-0.013948,-0.383285,-0.923525,0.012010,-0.011567,0.008806,-21.873343,-13.900797,-39.305573,,,,,,,
1504281648.883193,-0.014815,0.393024,-3.071659,-0.054551,0.000744,-0.003238,-0.013685,-0.382984,-0.923654,0.013410,-0.011273,0.006036,-21.872442,-14.126245,-39.078888,,,,,,,
1504281648.893203,-0.014602,0.392716,-3.071818,-0.050341,-0.008876,-0.006417,-0.013490,-0.382699,-0.923774,0.013322,-0.010733,0.007515,-21.872442,-14.126245,-39.078888,,,,,,,
1504281648.903212,-0.014510,0.392489,-3.072006,-0.035504,-0.022847,-0.008503,-0.013406,-0.382489,-0.923863,0.013589,-0.007068,0.008915,-21.798040,-13.975611,-39.229828,,,,,,,
1504281648.913222,-0.014594,0.392341,-3.072122,-0.020639,-0.029366,-0.004197,-0.013485,-0.382353,-0.923918,0.009609,-0.003404,0.007338,-21.798040,-13.975611,-39.229828,,,,,,,
1504281648.923232,-0.014787,0.392323,-3.072151,-0.008903,-0.026270,0.001155,-0.013663,-0.382336,-0.923922,0.004965,-0.003711,0.005160,-22.024176,-13.526621,-39.233765,,,,,,,
1504281648.933242,-0.014994,0.392374,-3.072118,-0.005684,-0.022037,0.004355,-0.013854,-0.382383,-0.923900,0.002181,-0.003496,0.006572,-22.024176,-13.526621,-39.233765,,,,,,,
1504281648.943251,-0.015119,0.392331,-3.072079,-0.013054,-0.009190,0.005387,-0.013970,-0.382343,-0.923915,0.000984,-0.002957,0.001552,-22.024023,-13.676325,-39.382660,,,,,,,
1504281648.953261,-0.015161,0.392204,-3.072018,-0.020445,0.000461,0.005357,-0.014009,-0.382226,-0.923963,-0.000075,-0.003974,0.000303,-22.024023,-13.676325,-39.382660,,,,,,,
1504281648.963271,-0.015092,0.392025,-3.071980,-0.022508,0.007940,0.003205,-0.013947,-0.382060,-0.924032,0.000534,-0.003499,0.000662,-21.723501,-13.750422,-39.156311,,,,,,,
1504281648.973281,-0.014949,0.391813,-3.071957,-0.023523,0.014342,0.003192,-0.013816,-0.381865,-0.924115,0.001136,-0.001985,0.000088,-21.723501,-13.750422,-39.156311,,,,,,,
1504281648.983290,-0.014778,0.391580,-3.071907,-0.024580,0.017544,0.006387,-0.013659,-0.381649,-0.924206,0.001223,-0.000202,0.001065,-22.098944,-13.751505,-39.457275,,,,,,,
1504281648.993300,-0.014673,0.391395,-3.071799,-0.019320,0.012166,0.012810,-0.013563,-0.381478,-0.924278,0.001509,-0.000373,0.002434,-22.098944,-13.751505,-39.457275,,,,,,,
1504281649.003310,-0.014654,0.391163,-3.071642,-0.025850,-0.000572,0.018158,-0.013547,-0.381264,-0.924367,0.003445,-0.000069,0.002980,-21.873465,-13.900644,-39.380585,,,,,,,
1504281649.013320,-0.014825,0.390912,-3.071410,-0.030260,-0.014395,0.024579,-0.013707,-0.381032,-0.924460,0.002690,-0.001323,0.002387,-21.873465,-13.900644,-39.380585,,,,,,,
1504281649.023330,-0.015199,0.390694,-3.071136,-0.021872,-0.031515,0.026758,-0.014053,-0.380831,-0.924538,0.001144,-0.000883,0.002953,-22.098227,-13.901957,-39.231110,,,,,,,
1504281649.033339,-0.015695,0.390515,-3.070847,-0.009147,-0.041210,0.026797,-0.014513,-0.380665,-0.924599,0.000932,0.004139,0.004738,-22.098227,-13.901957,-39.231110,,,,,,,
1504281649.043349,-0.016279,0.390526,-3.070577,0.007882,-0.047742,0.024703,-0.015053,-0.380675,-0.924586,0.000831,0.005141,0.006740,-22.099066,-13.527109,-39.158936,,,,,,,
1504281649.053359,-0.016899,0.390650,-3.070276,0.020673,-0.047850,0.026861,-0.015625,-0.380789,-0.924530,-0.000641,0.005820,0.007522,-22.099066,-13.527109,-39.158936,,,,,,,
1504281649.063369,-0.017437,0.390791,-3.069981,0.015429,-0.037150,0.025765,-0.016122,-0.380920,-0.924468,-0.001365,0.005050,0.008315,-21.724173,-13.525263,-39.233002,,,,,,,
1504281649.073378,-0.017841,0.390892,-3.069697,0.004855,-0.025341,0.025726,-0.016495,-0.381013,-0.924422,-0.000321,0.001909,0.006850,-21.724173,-13.525263,-39.233002,,,,,,,
1504281649.083388,-0.018124,0.390820,-3.069374,-0.015345,-0.012394,0.032073,-0.016756,-0.380947,-0.924445,0.000032,-0.000919,0.004828,-22.024176,-13.526621,-39.233765,,,,,,,
1504281649.093398,-0.018278,0.390606,-3.069004,-0.031174,0.010112,0.033073,-0.016900,-0.380749,-0.924524,-0.003104,-0.002918,0.003641,-22.024176,-13.526621,-39.233765,,,,,,,
1504281649.103408,-0.018235,0.390283,-3.068679,-0.039509,0.030435,0.025552,-0.016863,-0.380450,-0.924648,-0.004713,-0.001996,0.004451,-22.249884,-13.377176,-39.460480,,,,,,,
1504281649.113417,-0.017986,0.389909,-3.068428,-0.043646,0.043261,0.020185,-0.016635,-0.380105,-0.924794,-0.004269,-0.001655,0.007771,-22.249884,-13.377176,-39.460480,,,,,,,
1504281649.123427,-0.017675,0.389534,-3.068224,-0.045786,0.041149,0.018051,-0.016350,-0.379758,-0.924941,-0.002449,-0.001804,0.008666,-22.024740,-13.301615,-39.235443,,,,,,,
1504281649.133406,-0.017439,0.389170,-3.068052,-0.047996,0.029449,0.014865,-0.016134,-0.379420,-0.925084,-0.001230,-0.003957,0.009205,-22.024740,-13.301615,-39.235443,,,,,,,
1504281649.143416,-0.017349,0.388826,-3.067937,-0.042827,0.005968,0.010646,-0.016053,-0.379103,-0.925215,0.001450,-0.003145,0.008681,-22.025381,-13.226023,-39.536011,,,,,,,
1504281649.153426,-0.017496,0.388512,-3.067845,-0.038727,-0.016441,0.008558,-0.016191,-0.378811,-0.925332,0.000826,-0.002216,0.008157,-22.025381,-13.226023,-39.536011,,,,,,,
1504281649.163436,-0.017811,0.388297,-3.067742,-0.027117,-0.030393,0.011805,-0.016484,-0.378613,-0.925408,-0.000240,-0.001651,0.009393,-21.949179,-13.526285,-39.233582,,,,,,,
1504281649.173446,-0.018286,0.388213,-3.067517,-0.007956,-0.030560,0.020378,-0.016924,-0.378535,-0.925432,-0.004026,0.000255,0.006441,-21.949179,-13.526285,-39.233582,,,,,,,
1504281649.183455,-0.018728,0.388208,-3.067197,-0.003617,-0.017817,0.026768,-0.017334,-0.378530,-0.925427,-0.006730,0.000372,0.007382,-22.249884,-13.377176,-39.460480,,,,,,,
1504281649.193465,-0.019068,0.388160,-3.066837,-0.008829,-0.001792,0.027799,-0.017648,-0.378486,-0.925439,-0.008536,0.000541,0.005349,-22.249884,-13.377176,-39.460480,,,,,,,
1504281649.203475,-0.019156,0.387960,-3.066528,-0.025657,0.023927,0.020253,-0.017731,-0.378301,-0.925513,-0.009292,-0.000285,0.002829,-22.024282,-13.526468,-39.308777,,,,,,,
1504281649.213485,-0.018906,0.387645,-3.066344,-0.038184,0.051746,0.009509,-0.017502,-0.378009,-0.925636,-0.008712,-0.001797,0.003059,-22.024282,-13.526468,-39.308777,,,,,,,
1504281649.223494,-0.018450,0.387305,-3.066221,-0.038040,0.067730,0.006280,-0.017082,-0.377694,-0.925773,-0.009255,-0.001014,0.004615,-22.024740,-13.301615,-39.235443,,,,,,,
1504281649.233504,-0.017937,0.386959,-3.066048,-0.039101,0.073058,0.013741,-0.016610,-0.377374,-0.925912,-0.009925,-0.001120,0.005349,-22.024740,-13.301615,-39.235443,,,,,,,
1504281649.243514,-0.017536,0.386704,-3.065793,-0.033944,0.055956,0.022320,-0.016240,-0.377138,-0.926015,-0.007136,-0.003554,0.005361,-22.024405,-13.526316,-39.383789,,,,,,,
1504281649.253524,-0.017398,0.386485,-3.065455,-0.031010,0.027152,0.029848,-0.016114,-0.376935,-0.926100,-0.004760,-0.003635,0.006452,-22.024405,-13.526316,-39.383789,,,,,,,
1504281649.263533,-0.017542,0.386211,-3.065090,-0.035509,-0.000519,0.032025,-0.016249,-0.376681,-0.926200,-0.003588,-0.003003,0.004936,-22.099356,-13.451960,-39.234497,,,,,,,
1504281649.273543,-0.017883,0.385899,-3.064755,-0.035657,-0.021826,0.027793,-0.016567,-0.376393,-0.926312,-0.003330,-0.002453,0.003140,-22.099356,-13.451960,-39.234497,,,,,,,
1504281649.283553,-0.018334,0.385645,-3.064495,-0.028214,-0.030404,0.019282,-0.016987,-0.376157,-0.926400,-0.003872,-0.001254,0.003137,-22.099401,-13.526651,-39.383972,,,,,,,
1504281649.293563,-0.018764,0.385429,-3.064329,-0.022798,-0.026177,0.009678,-0.017386,-0.375957,-0.926474,-0.005166,-0.000554,0.002173,-22.099401,-13.526651,-39.383972,,,,,,,
1504281649.303572,-0.019122,0.385213,-3.064216,-0.018433,-0.016620,0.005399,-0.017719,-0.375757,-0.926549,-0.007671,0.000940,0.000524,-22.025640,-13.076166,-39.462158,,,,,,,
1504281649.313582,-0.019463,0.385106,-3.064071,-0.007715,-0.009253,0.007541,-0.018036,-0.375657,-0.926583,-0.010269,0.000566,-0.000251,-22.025640,-13.076166,-39.462158,,,,,,,
1504281649.323592,-0.019762,0.385059,-3.063865,-0.001281,-0.001854,0.012877,-0.018313,-0.375614,-0.926595,-0.011456,0.001468,0.001394,-22.250036,-13.227472,-39.311584,,,,,,,
1504281649.333602,-0.019976,0.385008,-3.063598,-0.002287,0.009868,0.019260,-0.018512,-0.375567,-0.926610,-0.011121,0.001833,0.000234,-22.250036,-13.227472,-39.311584,,,,,,,
1504281649.343612,-0.020079,0.384942,-3.063318,-0.002250,0.015193,0.020318,-0.018608,-0.375505,-0.926633,-0.008949,0.001329,-0.001925,-22.250036,-13.227472,-39.311584,,,,,,,
1504281649.353621,-0.020148,0.384816,-3.063066,-0.009716,0.014190,0.018173,-0.018673,-0.375388,-0.926679,-0.006748,0.002677,-0.001162,-22.250036,-13.227472,-39.311584,,,,,,,
1504281649.363631,-0.020156,0.384614,-3.062913,-0.015043,0.009980,0.009632,-0.018682,-0.375201,-0.926755,-0.004298,0.002795,-0.001345,-21.875341,-13.150644,-39.386230,,,,,,,
1504281649.373641,-0.020175,0.384398,-3.062857,-0.017185,0.003612,0.001101,-0.018702,-0.375001,-0.926836,-0.003606,0.002229,-0.001021,-21.875341,-13.150644,-39.386230,,,,,,,
1504281649.383620,-0.020249,0.384189,-3.062869,-0.019349,-0.002760,-0.003161,-0.018772,-0.374807,-0.926913,-0.003811,0.002767,0.001330,-22.249853,-13.302485,-39.311005,,,,,,,
1504281649.393630,-0.020323,0.383986,-3.062892,-0.013979,0.000394,-0.005291,-0.018841,-0.374619,-0.926987,-0.005557,0.001359,-0.002212,-22.249853,-13.302485,-39.311005,,,,,,,
1504281649.403640,-0.020361,0.383875,-3.062914,-0.002179,0.007756,-0.006351,-0.018878,-0.374516,-0.927028,-0.007016,0.002705,-0.001423,-22.174780,-13.376993,-39.385284,,,,,,,
1504281649.413649,-0.020311,0.383837,-3.062926,0.005342,0.015151,-0.005283,-0.018832,-0.374481,-0.927043,-0.006452,0.005340,0.000423,-22.174780,-13.376993,-39.385284,,,,,,,
1504281649.423659,-0.020176,0.383801,-3.062924,0.008585,0.022579,-0.002087,-0.018707,-0.374447,-0.927059,-0.005188,0.006787,-0.000766,-22.250601,-13.002481,-39.313263,,,,,,,
1504281649.433669,-0.020001,0.383729,-3.062901,0.005367,0.022602,0.001109,-0.018545,-0.374381,-0.927090,-0.003183,0.007559,-0.002689,-22.250601,-13.002481,-39.313263,,,,,,,
1504281649.443679,-0.019824,0.383617,-3.062850,0.000950,0.021491,0.004329,-0.018382,-0.374277,-0.927135,-0.001684,0.006555,-0.002812,-21.874365,-13.450937,-39.233948,,,,,,,
1504281649.453688,-0.019643,0.383549,-3.062771,0.005200,0.021453,0.007539,-0.018214,-0.374214,-0.927163,-0.000417,0.006188,-0.002463,-21.874365,-13.450937,-39.233948,,,,,,,
1504281649.463698,-0.019488,0.383584,-3.062683,0.013722,0.019253,0.006490,-0.018071,-0.374247,-0.927153,-0.000758,0.005457,-0.000841,-21.799887,-13.375162,-39.459351,,,,,,,
1504281649.473708,-0.019417,0.383683,-3.062627,0.020010,0.003221,0.003327,-0.018004,-0.374338,-0.927117,0.001097,0.006159,0.000894,-21.799887,-13.375162,-39.459351,,,,,,,
1504281649.483718,-0.019461,0.383855,-3.062642,0.029505,-0.012837,-0.000898,-0.018043,-0.374497,-0.927052,0.002342,0.005341,-0.001674,-21.874853,-13.300791,-39.310089,,,,,,,
1504281649.493727,-0.019635,0.384135,-3.062715,0.039040,-0.025694,-0.008331,-0.018203,-0.374757,-0.926944,0.002227,0.005845,-0.001111,-21.874853,-13.300791,-39.310089,,,,,,,
1504281649.503737,-0.019788,0.384467,-3.062848,0.037989,-0.025682,-0.011535,-0.018342,-0.375065,-0.926817,0.004288,0.005268,0.002943,-22.100531,-13.076654,-39.387329,,,,,,,
1504281649.513747,-0.019842,0.384785,-3.062998,0.032756,-0.012851,-0.011567,-0.018390,-0.375359,-0.926697,0.003925,0.003503,0.002915,-22.100531,-13.076654,-39.387329,,,,,,,
1504281649.523757,-0.019769,0.384967,-3.063122,0.014759,0.005412,-0.010563,-0.018321,-0.375529,-0.926630,0.001353,0.002436,0.004327,-21.949850,-13.301126,-39.310272,,,,,,,
1504281649.533767,-0.019489,0.384938,-3.063221,-0.009633,0.025856,-0.007439,-0.018062,-0.375502,-0.926646,0.001705,0.002287,0.006022,-21.949850,-13.301126,-39.310272,,,,,,,
1504281649.543776,-0.019091,0.384678,-3.063280,-0.030906,0.036683,-0.003226,-0.017695,-0.375261,-0.926750,0.001871,0.002199,0.005928,-22.248800,-13.677637,-39.233185,,,,,,,
1504281649.553786,-0.018724,0.384373,-3.063287,-0.032056,0.030293,0.003188,-0.017357,-0.374978,-0.926871,0.002510,0.001427,0.004615,-22.248800,-13.677637,-39.233185,,,,,,,
1504281649.563796,-0.018421,0.384067,-3.063264,-0.023583,0.023828,0.005349,-0.017078,-0.374694,-0.926991,0.002537,0.004348,0.005177,-22.025259,-13.226175,-39.461029,,,,,,,
1504281649.573806,-0.018191,0.383875,-3.063267,-0.008692,0.016250,0.002185,-0.016866,-0.374516,-0.927067,0.003530,0.005940,0.005985,-22.025259,-13.226175,-39.461029,,,,,,,
1504281649.583815,-0.018054,0.383878,-3.063314,0.010436,0.003312,-0.003096,-0.016740,-0.374519,-0.927068,0.003815,0.005668,0.006200,-21.949286,-13.526133,-39.308594,,,,,,,
1504281649.593825,-0.018025,0.384005,-3.063367,0.022124,-0.003177,-0.004132,-0.016712,-0.374637,-0.927021,0.002689,0.007236,0.005359,-21.949286,-13.526133,-39.308594,,,,,,,
1504281649.603835,-0.017938,0.384187,-3.063448,0.027542,0.005307,-0.007340,-0.016629,-0.374806,-0.926954,0.001966,0.007298,0.003691,-22.023794,-13.676615,-39.232635,,,,,,,
1504281649.613845,-0.017725,0.384331,-3.063539,0.015894,0.017124,-0.006314,-0.016431,-0.374939,-0.926904,0.002164,0.005157,0.004083,-22.023794,-13.676615,-39.232635,,,,,,,
1504281649.623854,-0.017451,0.384376,-3.063608,0.006319,0.022528,-0.003138,-0.016176,-0.374980,-0.926892,0.002749,0.003719,0.001858,-21.949514,-13.525827,-39.458618,,,,,,,
1504281649.633834,-0.017136,0.384240,-3.063611,-0.013945,0.026952,0.002156,-0.015885,-0.374855,-0.926947,0.002702,0.002830,0.001166,-21.949514,-13.525827,-39.458618,,,,,,,
1504281649.643843,-0.016820,0.384004,-3.063601,-0.021458,0.022750,0.004285,-0.015594,-0.374636,-0.927041,0.003753,0.002764,0.002068,-22.024771,-13.376322,-39.384888,,,,,,,
1504281649.653853,-0.016590,0.383723,-3.063596,-0.021521,0.014228,0.003232,-0.015383,-0.374375,-0.927150,0.004610,0.004487,0.001979,-22.024771,-13.376322,-39.384888,,,,,,,
1504281649.663863,-0.016444,0.383457,-3.063575,-0.017317,0.007798,0.005386,-0.015249,-0.374129,-0.927251,0.004095,0.005659,0.001409,-22.100637,-13.076502,-39.462341,,,,,,,
1504281649.673873,-0.016343,0.383200,-3.063535,-0.015165,0.008849,0.003253,-0.015157,-0.373890,-0.927349,0.001363,0.006275,0.000179,-22.100637,-13.076502,-39.462341,,,,,,,
1504281649.683883,-0.016217,0.382898,-3.063535,-0.017242,0.014197,0.000037,-0.015042,-0.373610,-0.927464,0.000256,0.006468,-0.004940,-22.024557,-13.376612,-39.234863,,,,,,,
1504281649.693892,-0.016048,0.382527,-3.063493,-0.021441,0.024884,0.003214,-0.014887,-0.373266,-0.927605,-0.002660,0.006963,-0.007072,-22.024557,-13.376612,-39.234863,,,,,,,
1504281649.703902,-0.015914,0.382192,-3.063359,-0.018232,0.030178,0.009615,-0.014765,-0.372956,-0.927732,-0.006795,0.005860,-0.007220,-21.875265,-13.225489,-39.460663,,,,,,,
1504281649.713912,-0.015927,0.382003,-3.063144,0.000828,0.016160,0.016078,-0.014778,-0.372780,-0.927802,-0.008217,0.005791,-0.006250,-21.875265,-13.225489,-39.460663,,,,,,,
1504281649.723922,-0.016128,0.382001,-3.062871,0.019796,-0.008514,0.023626,-0.014965,-0.372778,-0.927800,-0.005726,0.006628,-0.004756,-21.874517,-13.525492,-39.458405,,,,,,,
1504281649.733920,-0.016603,0.382195,-3.062585,0.036581,-0.042754,0.025851,-0.015404,-0.372958,-0.927720,-0.001762,0.006457,-0.003569,-21.874517,-13.525492,-39.458405,,,,,,,
1504281649.743930,-0.017347,0.382591,-3.062311,0.058776,-0.069576,0.024869,-0.016092,-0.373326,-0.927561,-0.000006,0.007633,-0.002203,-22.100195,-13.301355,-39.535645,,,,,,,
1504281649.753940,-0.018217,0.383102,-3.062040,0.068314,-0.078178,0.023833,-0.016895,-0.373799,-0.927356,0.000263,0.009389,0.000125,-22.100195,-13.301355,-39.535645,,,,,,,
1504281649.763950,-0.019087,0.383552,-3.061835,0.072599,-0.080336,0.016373,-0.017699,-0.374217,-0.927172,0.000701,0.015071,-0.002241,-22.175451,-13.151850,-39.461975,,,,,,,
1504281649.773959,-0.019979,0.383984,-3.061772,0.076756,-0.101668,0.003609,-0.018523,-0.374618,-0.926994,0.005110,0.018844,-0.005302,-22.175451,-13.151850,-39.461975,,,,,,,
1504281649.783969,-0.021379,0.384540,-3.061925,0.087936,-0.182725,-0.015443,-0.019817,-0.375132,-0.926759,0.009670,0.016276,-0.006819,-22.100409,-13.076807,-39.312317,,,,,,,
1504281649.793979,-0.023625,0.385096,-3.062453,0.086062,-0.305214,-0.050455,-0.021893,-0.375648,-0.926504,0.017651,0.017555,-0.008647,-22.100409,-13.076807,-39.312317,,,,,,,
1504281649.803989,-0.026985,0.385580,-3.063559,0.086237,-0.450076,-0.104639,-0.025000,-0.376097,-0.926243,0.025062,0.023329,-0.007625,-22.174734,-13.302286,-39.235809,,,,,,,
1504281649.813998,-0.031516,0.386065,-3.065389,0.086453,-0.597057,-0.170560,-0.029191,-0.376546,-0.925938,0.030992,0.027272,-0.006801,-22.174734,-13.302286,-39.235809,,,,,,,
1504281649.824008,-0.037046,0.386306,-3.068181,0.054284,-0.688313,-0.285735,-0.034308,-0.376769,-0.925672,0.021170,0.058181,-0.008853,-22.474173,-13.528635,-39.234863,,,,,,,
1504281649.834018,-0.042485,0.386517,-3.071888,0.018198,-0.708188,-0.356211,-0.039339,-0.376964,-0.925392,0.023195,0.082149,-0.002342,-22.474173,-13.528635,-39.234863,,,,,,,
1504281649.844028,-0.048230,0.386705,-3.076095,-0.003207,-0.743132,-0.398882,-0.044651,-0.377138,-0.925080,0.002415,0.123934,-0.016754,-22.848639,-13.605768,-39.010223,,,,,,,
1504281649.854038,-0.055122,0.387216,-3.080063,0.048896,-0.864032,-0.343074,-0.051015,-0.377612,-0.924557,-0.043757,0.151431,0.015012,-22.848639,-13.605768,-39.010223,,,,,,,
1504281649.864047,-0.063806,0.388333,-3.083136,0.108072,-1.024434,-0.271173,-0.059015,-0.378646,-0.923658,-0.029257,0.083526,0.027509,-23.672461,-13.760538,-38.486145,,,,,,,
1504281649.874057,-0.074932,0.389916,-3.085477,0.160295,-1.263616,-0.215155,-0.069242,-0.380111,-0.922346,0.012449,0.019194,-0.003054,-23.672461,-13.760538,-38.486145,,,,,,,
1504281649.884036,-0.088934,0.392196,-3.087484,0.231563,-1.550861,-0.203851,-0.082073,-0.382218,-0.920420,0.057980,-0.050353,-0.037176,-24.196142,-14.063639,-38.110168,,,,,,,
1504281649.894046,-0.105916,0.395336,-3.089650,0.316814,-1.855218,-0.242661,-0.097564,-0.385118,-0.917696,0.062500,-0.054778,-0.051817,-24.196142,-14.063639,-38.110168,,,,,,,
1504281649.904056,-0.125294,0.399600,-3.092447,0.417730,-2.097851,-0.328518,-0.115121,-0.389050,-0.913995,0.059045,-0.013690,-0.058890,-24.869528,-14.442575,-37.659027,,,,,,,
1504281649.914066,-0.146147,0.404952,-3.095841,0.513919,-2.253084,-0.396391,-0.133849,-0.393975,-0.909323,0.076110,0.033806,-0.065210,-24.869528,-14.442575,-37.659027,,,,,,,
1504281649.924075,-0.168121,0.411528,-3.099307,0.627361,-2.358422,-0.420559,-0.153360,-0.400010,-0.903589,0.103525,0.039781,-0.057044,-26.516302,-15.052225,-36.533539,,,,,,,
1504281649.934085,-0.191197,0.419252,-3.102362,0.734308,-2.452024,-0.407400,-0.173576,-0.407077,-0.896749,0.074379,0.061969,-0.051950,-26.516302,-15.052225,-36.533539,,,,,,,
1504281649.944095,-0.215467,0.427669,-3.104716,0.791005,-2.544170,-0.370847,-0.194548,-0.414751,-0.888894,0.015531,0.105959,-0.067206,-28.088552,-15.436701,-35.334595,,,,,,,
1504281649.954105,-0.240580,0.436356,-3.106645,0.814021,-2.601901,-0.371773,-0.215940,-0.422639,-0.880196,-0.032992,0.113420,-0.074882,-28.088552,-15.436701,-35.334595,,,,,,,
1504281649.964114,-0.266076,0.445304,-3.108619,0.820335,-2.636014,-0.409061,-0.237305,-0.430733,-0.870721,-0.011367,0.039512,-0.083731,-29.734549,-16.271662,-34.057434,,,,,,,
1504281649.974124,-0.291381,0.454278,-3.111151,0.784438,-2.639894,-0.491306,-0.258139,-0.438814,-0.860701,0.037756,-0.010206,-0.076677,-29.734549,-16.271662,-34.057434,,,,,,,
1504281649.984134,-0.316153,0.462976,-3.115146,0.695394,-2.661382,-0.641926,-0.278182,-0.446613,-0.850384,0.057967,0.011661,-0.069294,-31.380850,-16.807230,-32.482544,,,,,,,
1504281649.994144,-0.340683,0.471053,-3.121369,0.540850,-2.762205,-0.836284,-0.297741,-0.453825,-0.839877,0.056011,0.069532,-0.089292,-31.380850,-16.807230,-32.482544,,,,,,,
1504281650.004154,-0.365774,0.478159,-3.130467,0.329981,-2.987208,-1.060407,-0.317557,-0.460145,-0.829110,0.077155,0.074083,-0.133613,-32.950447,-17.793192,-30.529053,,,,,,,
1504281650.014163,-0.392190,0.483690,3.139999,0.002198,-3.313505,-1.322980,-0.338367,-0.465049,-0.818069,0.131046,0.022300,-0.164978,-32.950447,-17.793192,-30.529053,,,,,,,
1504281650.024173,-0.419950,0.487104,3.122567,-0.398354,-3.690314,-1.622950,-0.360295,-0.468068,-0.806907,0.195561,0.000386,-0.195656,-34.371346,-18.403040,-28.803040,,,,,,,
1504281650.034183,-0.449485,0.488268,3.100698,-0.811017,-4.066037,-1.846090,-0.383729,-0.469097,-0.795425,0.207444,0.064266,-0.244401,-34.371346,-18.403040,-28.803040,,,,,,,
1504281650.044193,-0.480735,0.487020,3.075620,-1.194955,-4.369673,-1.936949,-0.408665,-0.467994,-0.783565,0.157399,0.100990,-0.244038,-35.792000,-19.013193,-26.927032,,,,,,,
1504281650.054202,-0.513329,0.483740,3.048536,-1.503696,-4.556799,-1.943558,-0.434734,-0.465094,-0.771164,0.128124,0.057089,-0.190765,-35.792000,-19.013193,-26.927032,,,,,,,
1504281650.064212,-0.545174,0.478977,3.019796,-1.751470,-4.467357,-1.965493,-0.460211,-0.460872,-0.758817,0.134115,-0.038976,-0.095416,-36.911003,-19.923182,-24.447998,,,,,,,
1504281650.074222,-0.572538,0.474204,2.989173,-1.867727,-4.002739,-2.084996,-0.481987,-0.456630,-0.747782,0.133949,-0.038609,0.072809,-36.911003,-19.923182,-24.447998,,,,,,,
1504281650.084232,-0.592943,0.470893,2.956890,-1.845484,-3.335668,-2.267592,-0.497986,-0.453682,-0.739042,0.161118,-0.009865,0.188275,-38.781395,-20.460947,-22.273651,,,,,,,
1504281650.094241,-0.606385,0.470502,2.923383,-1.664408,-2.716740,-2.498928,-0.507975,-0.453334,-0.732427,0.190135,-0.025395,0.210134,-38.781395,-20.460947,-22.273651,,,,,,,
1504281650.104251,-0.615077,0.473533,2.889738,-1.400079,-2.315955,-2.658220,-0.513527,-0.456034,-0.726858,0.178521,-0.035116,0.169440,-39.151772,-21.365778,-20.692810,,,,,,,
1504281650.114261,-0.622647,0.479557,2.857599,-1.083500,-2.224782,-2.665304,-0.517403,-0.461387,-0.720706,0.104470,-0.009378,0.158297,-39.151772,-21.365778,-20.692810,,,,,,,
1504281650.124271,-0.632079,0.487926,2.828301,-0.769179,-2.344699,-2.557808,-0.521878,-0.468795,-0.712653,0.001172,0.008285,0.169776,-38.922813,-22.491266,-19.933807,,,,,,,
1504281650.134250,-0.643871,0.497931,2.802009,-0.512428,-2.441792,-2.422699,-0.527403,-0.477609,-0.702663,-0.056642,-0.000144,0.153011,-38.922813,-22.491266,-19.933807,,,,,,,
1504281650.144260,-0.657428,0.509591,2.778205,-0.276616,-2.530119,-2.353821,-0.533442,-0.487820,-0.690993,-0.061132,-0.002429,0.146575,-38.242393,-23.840921,-18.571960,,,,,,,
1504281650.154269,-0.671509,0.523185,2.755712,-0.094833,-2.502806,-2.390913,-0.538942,-0.499642,-0.678159,-0.038954,-0.033927,0.098432,-38.242393,-23.840921,-18.571960,,,,,,,
1504281650.164279,-0.684909,0.538843,2.733662,0.064042,-2.442209,-2.487878,-0.542965,-0.513143,-0.664736,0.002270,0.009969,0.079775,-37.936790,-25.267267,-17.210480,,,,,,,
1504281650.174289,-0.697448,0.556610,2.711717,0.209163,-2.378283,-2.603019,-0.545315,-0.528311,-0.650784,0.001721,0.090185,0.063152,-37.936790,-25.267267,-17.210480,,,,,,,
1504281650.184299,-0.709270,0.576279,2.689989,0.347559,-2.335646,-2.687179,-0.546096,-0.544907,-0.636282,-0.013200,0.117905,0.050329,-37.930840,-26.695414,-15.624756,,,,,,,
1504281650.194309,-0.720528,0.597489,2.668819,0.477258,-2.284460,-2.725471,-0.545475,-0.562569,-0.621268,-0.020398,0.099922,0.054541,-37.930840,-26.695414,-15.624756,,,,,,,
1504281650.204318,-0.731507,0.619829,2.648670,0.602426,-2.234356,-2.712533,-0.543731,-0.580896,-0.605736,-0.025331,0.051691,0.076211,-37.249001,-28.570230,-14.183990,,,,,,,
1504281650.214328,-0.742177,0.642812,2.629839,0.703043,-2.153201,-2.647391,-0.540994,-0.599449,-0.589903,-0.039603,0.002739,0.095442,-37.249001,-28.570230,-14.183990,,,,,,,
1504281650.224338,-0.752415,0.665748,2.612625,0.765225,-2.039820,-2.525799,-0.537466,-0.617648,-0.574144,-0.070749,-0.028379,0.105287,-35.892342,-30.142756,-12.368805,,,,,,,
1504281650.234348,-0.762088,0.687999,2.596944,0.776137,-1.916456,-2.376561,-0.533372,-0.634992,-0.558837,-0.083128,-0.048983,0.088668,-35.892342,-30.142756,-12.368805,,,,,,,
1504281650.244357,-0.771156,0.709073,2.582643,0.744276,-1.791696,-2.206052,-0.528973,-0.651130,-0.544258,-0.073597,-0.063500,0.059853,-34.685158,-32.015648,-10.701721,,,,,,,
1504281650.254367,-0.779874,0.728566,2.569504,0.680969,-1.722101,-2.022691,-0.524671,-0.665801,-0.530500,-0.075290,-0.063295,0.053983,-34.685158,-32.015648,-10.701721,,,,,,,
1504281650.264377,-0.788877,0.746088,2.557300,0.572222,-1.722476,-1.825410,-0.521067,-0.678771,-0.517454,-0.066610,-0.049485,0.036039,-33.403923,-33.513222,-9.037292,,,,,,,
1504281650.274387,-0.798383,0.761329,2.545855,0.439747,-1.746113,-1.614252,-0.518492,-0.689884,-0.505199,-0.043993,-0.040066,0.014156,-33.403923,-33.513222,-9.037292,,,,,,,
1504281650.284396,-0.814802,0.774761,2.539683,0.672381,-2.122531,-1.155269,-0.519927,-0.699545,-0.490217,-0.046861,-0.061838,0.017499,-32.424477,-34.561241,-7.826965,,,,,,,
1504281650.294406,-0.834273,0.785959,2.537121,0.630148,-2.162961,-0.880949,-0.523537,-0.707503,-0.474709,-0.192009,-0.111115,0.203026,-32.424477,-34.561241,-7.826965,,,,,,,
1504281650.304416,-0.855211,0.795627,2.536328,0.581755,-2.109451,-0.718882,-0.528174,-0.714302,-0.459135,-0.046365,-0.055992,0.126936,-31.520300,-35.459740,-6.542999,,,,,,,
1504281650.314426,-0.870779,0.807526,2.537474,0.975510,-1.306870,-0.941634,-0.528719,-0.722579,-0.445349,-0.007765,-0.025285,0.128730,-31.520300,-35.459740,-6.542999,,,,,,,
1504281650.324435,-0.883967,0.821580,2.540430,1.084274,-0.946474,-0.993317,-0.526641,-0.732223,-0.431856,0.196425,-0.012986,0.492189,-31.066732,-35.985695,-5.037933,,,,,,,
1504281650.334445,-0.894869,0.835845,2.544205,1.085200,-0.783523,-0.917817,-0.523115,-0.741863,-0.419511,0.139830,-0.125568,0.204209,-31.066732,-35.985695,-5.037933,,,,,,,
1504281650.344455,-0.906285,0.848089,2.548328,0.901278,-0.855723,-0.737617,-0.520680,-0.750018,-0.407880,-0.001933,-0.034895,0.157803,-30.688879,-36.361565,-3.759155,,,,,,,
1504281650.354465,-0.918578,0.856547,2.550512,0.536156,-1.154498,-0.528512,-0.520594,-0.755585,-0.397583,-0.050359,0.072312,0.028351,-30.688879,-36.361565,-3.759155,,,,,,,
1504281650.364475,-0.932191,0.861149,2.550147,0.167920,-1.451101,-0.333292,-0.523161,-0.758592,-0.388383,-0.013918,0.066941,-0.128386,-30.310934,-36.812263,-2.554810,,,,,,,
1504281650.374484,-0.945359,0.862489,2.547311,-0.143888,-1.524345,-0.184267,-0.527405,-0.759464,-0.380866,0.018601,0.015766,-0.111337,-30.310934,-36.812263,-2.554810,,,,,,,
1504281650.384464,-0.955424,0.861522,2.541802,-0.413110,-1.395387,-0.120917,-0.531811,-0.758835,-0.375962,-0.033985,0.018509,-0.027160,-29.783880,-37.186409,-1.800720,,,,,,,
1504281650.394473,-0.962410,0.859244,2.533136,-0.652605,-1.345428,-0.154509,-0.535841,-0.757349,-0.373224,-0.095125,0.035181,-0.017691,-29.783880,-37.186409,-1.800720,,,,,,,
1504281650.404483,-0.966244,0.856756,2.520495,-0.872626,-1.338125,-0.310744,-0.538817,-0.755722,-0.372237,-0.054460,0.041031,-0.090043,-29.782064,-37.413048,-0.973999,,,,,,,
1504281650.414493,-0.967158,0.854373,2.503557,-1.114439,-1.390313,-0.471182,-0.540639,-0.754159,-0.372765,0.025715,0.040200,-0.095451,-29.782064,-37.413048,-0.973999,,,,,,,
1504281650.424503,-0.965905,0.851693,2.482726,-1.324529,-1.448139,-0.583521,-0.541831,-0.752397,-0.374590,0.049476,-0.018126,-0.155561,-29.482412,-37.411247,-1.198273,,,,,,,
1504281650.434512,-0.962973,0.848451,2.458969,-1.524264,-1.506117,-0.632865,-0.542730,-0.750257,-0.377569,0.051321,-0.067889,-0.181452,-29.331427,-37.935127,-1.418945,,,,,,,
1504281650.444522,-0.960717,0.843155,2.432685,-1.796577,-1.857829,-0.524890,-0.545126,-0.746745,-0.381064,0.066534,-0.058599,-0.201975,-29.331427,-37.935127,-1.418945,,,,,,,
1504281650.454532,-0.964976,0.834766,2.405413,-2.032551,-2.668117,-0.289042,-0.551875,-0.741139,-0.382292,0.036021,-0.042873,-0.283251,-29.331427,-37.935127,-1.418945,,,,,,,
1504281650.464542,-0.977426,0.822954,2.377630,-2.273073,-3.490128,-0.015822,-0.563810,-0.733158,-0.380261,-0.003772,-0.020931,-0.295673,-28.581732,-38.080864,-1.865997,,,,,,,
1504281650.474551,-0.997207,0.807649,2.349648,-2.503130,-4.173748,0.306273,-0.580579,-0.722664,-0.375080,-0.042377,0.018075,-0.224469,-28.581732,-38.080864,-1.865997,,,,,,,
1504281650.484561,-1.022785,0.788418,2.321109,-2.770545,-4.713225,0.648330,-0.601735,-0.709239,-0.367282,-0.042171,-0.016592,-0.134900,-28.732672,-37.930794,-2.242493,,,,,,,
1504281650.494571,-1.051291,0.766927,2.292329,-2.837775,-4.859927,0.843807,-0.625047,-0.693925,-0.357468,0.020815,-0.111327,-0.089005,-28.732672,-37.930794,-2.242493,,,,,,,
1504281650.504581,-1.080300,0.745815,2.266528,-2.596094,-4.577535,0.971816,-0.647933,-0.678571,-0.346013,0.077636,-0.205371,-0.069026,-28.958242,-37.706810,-2.244751,,,,,,,
1504281650.514591,-1.107281,0.724928,2.242275,-2.569250,-4.236852,1.055586,-0.669565,-0.663082,-0.334672,0.090830,-0.178975,-0.085845,-28.958242,-37.706810,-2.244751,,,,,,,
1504281650.524600,-1.131743,0.703198,2.217696,-2.612638,-3.985136,1.173549,-0.690432,-0.646660,-0.324244,0.156817,0.002984,-0.026007,-30.308493,-37.338768,-1.800873,,,,,,,
1504281650.534610,-1.153549,0.682447,2.194427,-2.446627,-3.534640,1.126076,-0.709454,-0.630694,-0.314483,0.255139,0.030658,0.178176,-30.308493,-37.338768,-1.800873,,,,,,,
1504281650.544620,-1.170633,0.663993,2.171914,-2.320486,-2.972815,0.907554,-0.725320,-0.616266,-0.306800,0.247934,0.002405,0.241828,-30.985067,-36.666939,-1.732635,,,,,,,
1504281650.554630,-1.181435,0.650371,2.150411,-1.993086,-2.174828,0.504304,-0.736291,-0.605482,-0.302106,0.161324,-0.005648,0.266569,-30.985067,-36.666939,-1.732635,,,,,,,
1504281650.564639,-1.186342,0.644687,2.132694,-1.356810,-1.357771,-0.188779,-0.740942,-0.600949,-0.299776,0.038626,0.082913,0.306810,-31.960928,-36.371178,-1.812256,,,,,,,
1504281650.574649,-1.187273,0.647039,2.118633,-0.838597,-0.826502,-0.771619,-0.739908,-0.602827,-0.298556,-0.023504,0.167814,0.250048,-32.336906,-36.072563,-1.965454,,,,,,,
1504281650.584659,-1.186484,0.654292,2.105934,-0.636132,-0.673299,-1.117377,-0.735600,-0.608598,-0.297492,-0.073055,0.144212,0.102195,-32.336906,-36.072563,-1.965454,,,,,,,
1504281650.594669,-1.185916,0.662778,2.092924,-0.651627,-0.777542,-1.172725,-0.730618,-0.615309,-0.295960,-0.113392,-0.001619,0.006867,-31.436499,-36.368065,-2.185974,,,,,,,
1504281650.604678,-1.186481,0.670145,2.078696,-0.798955,-0.985304,-1.059469,-0.726562,-0.621100,-0.293840,-0.121582,-0.174554,-0.028563,-31.436499,-36.368065,-2.185974,,,,,,,
1504281650.614688,-1.188410,0.675187,2.064245,-0.874840,-1.127704,-0.833060,-0.724213,-0.625043,-0.291266,-0.129043,-0.264727,-0.024820,-30.909018,-37.490273,-2.401245,,,,,,,
1504281650.624698,-1.192303,0.678200,2.050304,-0.889969,-1.301468,-0.644917,-0.723589,-0.627392,-0.287747,-0.127928,-0.265460,-0.015766,-30.909018,-37.490273,-2.401245,,,,,,,
1504281650.634708,-1.198733,0.679992,2.037413,-0.865736,-1.514941,-0.497197,-0.724375,-0.628787,-0.282679,-0.119787,-0.224362,-0.058202,-30.232962,-37.862389,-2.321777,,,,,,,
1504281650.644687,-1.208331,0.679893,2.026185,-0.801703,-1.710810,-0.172250,-0.727113,-0.628710,-0.275736,-0.093917,-0.176801,-0.101614,-30.232962,-37.862389,-2.321777,,,,,,,
1504281650.654697,-1.223125,0.678756,2.021589,-0.256031,-1.830538,-0.029129,-0.731784,-0.627825,-0.265193,-0.028256,0.017291,-0.099401,-29.857321,-38.160545,-2.393585,,,,,,,
1504281650.664706,-1.240490,0.679372,2.017821,-0.273594,-1.985814,-0.179389,-0.735913,-0.628304,-0.252320,0.096982,0.082803,-0.088012,-29.857321,-38.160545,-2.393585,,,,,,,
1504281650.674716,-1.257643,0.679944,2.012782,-0.400019,-2.047650,-0.173095,-0.739791,-0.628749,-0.239550,0.070815,0.062465,-0.110868,-29.480978,-38.160652,-1.492615,,,,,,,
1504281650.684726,-1.273091,0.679368,2.005169,-0.633519,-1.983995,-0.103163,-0.743749,-0.628302,-0.228199,0.054006,0.003821,-0.049099,-29.480978,-38.160652,-1.492615,,,,,,,
1504281650.694736,-1.284903,0.681463,1.995934,-0.730949,-1.724338,-0.042952,-0.745127,-0.629930,-0.219027,0.087672,-0.094343,0.009906,-29.780264,-38.088203,-0.893921,,,,,,,
1504281650.704746,-1.294440,0.679806,1.985962,-0.804986,-1.526564,-0.070114,-0.748186,-0.628642,-0.212195,0.127199,-0.041432,-0.013223,-29.780264,-38.088203,-0.893921,,,,,,,
1504281650.714755,-1.301227,0.679613,1.975850,-0.736749,-1.239235,-0.242355,-0.749726,-0.628492,-0.207145,0.176255,0.025922,-0.074914,-29.704657,-38.238167,-0.742615,,,,,,,
1504281650.724765,-1.305751,0.681094,1.966562,-0.635973,-0.975690,-0.345115,-0.749756,-0.629643,-0.203507,0.191315,0.036000,-0.099715,-29.704657,-38.238167,-0.742615,,,,,,,
1504281650.734750,-1.309106,0.681730,1.957683,-0.664861,-0.886108,-0.185213,-0.750048,-0.630137,-0.200887,0.201647,0.027812,-0.114970,-29.704840,-38.163170,-0.743195,,,,,,,
1504281650.744760,-1.312655,0.679378,1.948033,-0.835903,-1.004363,0.119976,-0.752187,-0.628309,-0.198601,0.231359,-0.015002,-0.090263,-29.704840,-38.163170,-0.743195,,,,,,,
1504281650.754769,-1.317708,0.672500,1.936496,-1.118935,-1.306176,0.551248,-0.757347,-0.622943,-0.195876,0.235084,-0.047131,-0.064622,-29.479879,-38.236855,-0.892059,,,,,,,
1504281650.764779,-1.324962,0.661021,1.923580,-1.292815,-1.585415,0.953850,-0.765633,-0.613923,-0.192105,0.233330,-0.053298,-0.040958,-29.479879,-38.236855,-0.892059,,,,,,,
1504281650.774789,-1.335267,0.646744,1.912532,-1.125718,-1.726680,1.238318,-0.776017,-0.602591,-0.186231,0.221222,-0.022516,-0.015628,-30.231543,-37.714775,-1.122864,,,,,,,
1504281650.784799,-1.348969,0.631824,1.906646,-0.680222,-1.709167,1.363945,-0.787179,-0.590617,-0.177539,0.210031,0.042796,-0.012845,-30.231543,-37.714775,-1.122864,,,,,,,
1504281650.794808,-1.365181,0.619318,1.907232,-0.040731,-1.520283,1.159779,-0.797122,-0.580480,-0.166250,0.207690,0.186864,0.009268,-31.208044,-37.119164,-1.129761,,,,,,,
1504281650.804818,-1.383244,0.610479,1.914563,0.528297,-1.354232,0.927778,-0.805004,-0.573260,-0.152776,0.189419,0.369616,0.066869,-31.208044,-37.119164,-1.129761,,,,,,,
1504281650.814828,-1.401817,0.603357,1.923551,0.576911,-1.348124,0.816842,-0.811707,-0.567410,-0.138482,0.199952,0.276638,0.072458,-31.882208,-36.824287,-0.083679,,,,,,,
1504281650.824838,-1.419001,0.595688,1.929836,0.325877,-1.366336,0.848461,-0.818245,-0.561078,-0.125168,0.169441,0.097211,0.097962,-31.882208,-36.824287,-0.083679,,,,,,,
1504281650.834848,-1.434940,0.587639,1.933827,0.192545,-1.370551,0.834361,-0.824584,-0.554397,-0.112719,0.087370,0.078384,0.117709,-32.481865,-36.378929,0.886475,,,,,,,
1504281650.844857,-1.450725,0.580055,1.937346,0.200130,-1.393993,0.773574,-0.830410,-0.548070,-0.100191,0.044812,0.132191,0.113405,-32.481865,-36.378929,0.886475,,,,,,,
1504281650.854867,-1.466998,0.572979,1.940717,0.196637,-1.461046,0.724586,-0.835767,-0.542138,-0.087064,0.031797,0.112420,0.102109,-33.381264,-36.084755,1.782043,,,,,,,
1504281650.864877,-1.483451,0.566224,1.943278,0.128090,-1.521175,0.680809,-0.840716,-0.536449,-0.073620,0.002001,0.076793,0.080898,-33.381264,-36.084755,1.782043,,,,,,,
1504281650.874887,-1.499922,0.559949,1.944251,-0.003652,-1.625517,0.615654,-0.845155,-0.531143,-0.060000,-0.027037,0.054260,0.084018,-33.605873,-35.787270,2.529236,,,,,,,
1504281650.884896,-1.517122,0.553889,1.943457,-0.123403,-1.799275,0.601876,-0.849261,-0.525999,-0.045627,-0.038190,0.056745,0.075718,-33.605873,-35.787270,2.529236,,,,,,,
1504281650.894876,-1.536020,0.547877,1.943333,-0.005965,-1.931298,0.589504,-0.853116,-0.520876,-0.029680,-0.020343,0.036303,0.063387,-34.129860,-35.566719,3.576294,,,,,,,
1504281650.904885,-1.557132,0.541915,1.944557,0.125021,-2.081584,0.612411,-0.856642,-0.515778,-0.011706,0.078383,-0.075592,0.063449,-34.129860,-35.566719,3.576294,,,,,,,
1504281650.914895,-1.580594,0.535208,1.947552,0.295174,-2.238640,0.686634,-0.860121,-0.510020,0.008427,0.120299,-0.065663,0.026912,-34.503807,-35.270790,4.773102,,,,,,,
1504281650.924905,-1.606433,0.528239,1.951416,0.366181,-2.436353,0.679634,-0.863148,-0.504013,0.030773,0.164921,-0.044769,-0.011669,-34.503807,-35.270790,4.773102,,,,,,,
1504281650.934915,-1.635075,0.522599,1.955696,0.394704,-2.728358,0.482729,-0.864735,-0.499134,0.055661,0.219899,-0.001583,-0.071439,-34.728127,-34.599937,6.342529,,,,,,,
1504281650.944924,-1.668687,0.520000,1.958568,0.252640,-3.355547,0.151626,-0.863665,-0.496880,0.084816,0.284670,0.021538,-0.161949,-34.728127,-34.599937,6.342529,,,,,,,
1504281650.954934,-1.708895,0.521811,1.961078,0.176638,-4.087553,-0.329680,-0.858664,-0.498451,0.119340,0.375480,0.029732,-0.252976,-34.275536,-34.601357,8.068665,,,,,,,
1504281650.964944,-1.756696,0.528237,1.964244,0.165984,-4.774296,-0.791740,-0.848816,-0.504011,0.159638,0.498230,0.043806,-0.303864,-34.275536,-34.601357,8.068665,,,,,,,
1504281650.974954,-1.810313,0.538888,1.967918,0.042247,-5.300311,-1.212651,-0.833778,-0.513182,0.203612,0.601784,0.038558,-0.327102,-33.145576,-35.051384,10.624878,,,,,,,
1504281650.984963,-1.868460,0.554065,1.971417,-0.183062,-5.726377,-1.644588,-0.812996,-0.526148,0.249409,0.630166,0.064493,-0.311680,-33.145576,-35.051384,10.624878,,,,,,,
1504281650.994973,-1.928892,0.573736,1.973619,-0.557750,-5.975464,-2.005580,-0.786602,-0.542773,0.294370,0.560894,0.135440,-0.319563,-30.964270,-35.946983,13.337067,,,,,,,
1504281651.004983,-1.989201,0.598427,1.973761,-1.055422,-6.006133,-2.387451,-0.754951,-0.563343,0.335697,0.463448,0.149311,-0.290211,-30.964270,-35.946983,13.337067,,,,,,,
1504281651.014993,-2.046115,0.628586,1.971722,-1.591281,-5.703020,-2.707000,-0.719195,-0.588001,0.370152,0.392810,0.122135,-0.221577,-27.582663,-37.136604,15.754425,,,,,,,
1504281651.025003,-2.096057,0.662882,1.967528,-2.039820,-5.070429,-2.892486,-0.681965,-0.615391,0.395245,0.329425,0.055744,-0.115506,-27.582663,-37.136604,15.754425,,,,,,,
1504281651.035012,-2.137798,0.700218,1.962301,-2.365002,-4.301483,-2.991539,-0.645037,-0.644385,0.410725,0.296496,-0.013269,-0.000066,-23.602423,-38.770241,16.526642,,,,,,,
1504281651.045022,-2.171193,0.739578,1.956134,-2.607567,-3.572702,-3.033806,-0.609554,-0.673976,0.417373,0.243648,-0.016942,0.080246,-23.602423,-38.770241,16.526642,,,,,,,
1504281651.055032,-2.199213,0.780274,1.950249,-2.708034,-3.102940,-3.102055,-0.574945,-0.703474,0.417808,0.189614,0.041975,0.134683,-19.699301,-40.550926,15.649750,,,,,,,
1504281651.065042,-2.225967,0.821426,1.946932,-2.612884,-2.853239,-3.168509,-0.540136,-0.732118,0.415038,0.199209,0.116609,0.159608,-19.699301,-40.550926,15.649750,,,,,,,
1504281651.075051,-2.253824,0.861385,1.947760,-2.368337,-2.685834,-3.157706,-0.505258,-0.758746,0.411119,0.210199,0.160036,0.215239,-16.472891,-41.958595,14.243347,,,,,,,
1504281651.085061,-2.283913,0.899438,1.952429,-2.162361,-2.633261,-3.084859,-0.470473,-0.782977,0.406942,0.149108,0.125934,0.282374,-16.472891,-41.958595,14.243347,,,,,,,
1504281651.095071,-2.316972,0.935419,1.960990,-1.964239,-2.624320,-3.004476,-0.435787,-0.804848,0.402876,0.062786,0.045128,0.299669,-12.871557,-43.513985,12.539032,,,,,,,
1504281651.105081,-2.352777,0.969440,1.972733,-1.828179,-2.621289,-2.897506,-0.401419,-0.824569,0.398684,-0.001871,-0.002289,0.310026,-12.871557,-43.513985,12.539032,,,,,,,
1504281651.115090,-2.391168,1.000915,1.987906,-1.624732,-2.567713,-2.743542,-0.367934,-0.841965,0.394614,-0.059984,-0.021713,0.336648,-9.496389,-44.246574,11.427979,,,,,,,
1504281651.125100,-2.431928,1.028932,2.006521,-1.360340,-2.469931,-2.544719,-0.336042,-0.856749,0.391226,-0.114199,-0.048739,0.369180,-9.496389,-44.246574,11.427979,,,,,,,
1504281651.135110,-2.475024,1.052479,2.028578,-1.020495,-2.377087,-2.293454,-0.306314,-0.868654,0.389373,-0.159811,-0.044035,0.388306,-6.722052,-44.831261,10.014282,,,,,,,
1504281651.145089,-2.519824,1.070813,2.053703,-0.628330,-2.253814,-2.001591,-0.279244,-0.877591,0.389689,-0.193992,-0.039188,0.397527,-6.722052,-44.831261,10.014282,,,,,,,
1504281651.155099,-2.565075,1.083699,2.080606,-0.256291,-2.109069,-1.704464,-0.255145,-0.883695,0.392408,-0.218854,-0.065859,0.403369,-4.097601,-44.968269,9.421844,,,,,,,
1504281651.165109,-2.608647,1.091246,2.107666,0.114997,-1.906804,-1.378620,-0.234415,-0.887202,0.397394,-0.248709,-0.083287,0.403571,-4.097601,-44.968269,9.421844,,,,,,,
1504281651.175118,-2.648490,1.093625,2.132817,0.436082,-1.703075,-1.038988,-0.217400,-0.888298,0.404555,-0.281059,-0.096703,0.404008,-2.297644,-45.034874,9.276855,,,,,,,
1504281651.185128,-2.684611,1.092233,2.155115,0.634020,-1.610129,-0.786902,-0.203194,-0.887657,0.413251,-0.301018,-0.110023,0.380816,-2.297644,-45.034874,9.276855,,,,,,,
1504281651.195138,-2.717406,1.088747,2.174524,0.706422,-1.527777,-0.624677,-0.190807,-0.886047,0.422510,-0.302769,-0.142091,0.338111,-1.248419,-44.505898,9.650513,,,,,,,
1504281651.205148,-2.745949,1.084110,2.191302,0.749201,-1.304482,-0.501178,-0.180253,-0.883887,0.431569,-0.288131,-0.199395,0.328181,-1.248419,-44.505898,9.650513,,,,,,,
1504281651.215158,-2.769212,1.078290,2.205653,0.801402,-0.970442,-0.377858,-0.172034,-0.881151,0.440429,-0.274454,-0.261473,0.344178,-0.272589,-44.652107,9.954102,,,,,,,
1504281651.225167,-2.786601,1.071500,2.217311,0.842847,-0.638459,-0.240677,-0.166425,-0.877920,0.448954,-0.274996,-0.284647,0.331549,-0.272589,-44.652107,9.954102,,,,,,,
1504281651.235177,-2.798822,1.063731,2.225886,0.877893,-0.425794,-0.080881,-0.163214,-0.874173,0.457364,-0.291117,-0.277514,0.280886,0.253229,-44.576103,10.629822,,,,,,,
1504281651.245187,-2.806727,1.055248,2.230904,0.877718,-0.338595,0.094019,-0.162025,-0.870023,0.465627,-0.317040,-0.255328,0.210062,0.253229,-44.576103,10.629822,,,,,,,
1504281651.255197,-2.811449,1.046321,2.232194,0.860492,-0.377005,0.277650,-0.162335,-0.865587,0.473716,-0.333484,-0.239195,0.149941,-0.045904,-44.429085,11.452972,,,,,,,
1504281651.265206,-2.814165,1.036745,2.229718,0.867879,-0.529655,0.477537,-0.163707,-0.860752,0.481982,-0.342488,-0.232739,0.107679,-0.045904,-44.429085,11.452972,,,,,,,
1504281651.275216,-2.815714,1.026468,2.223702,0.876137,-0.712139,0.668938,-0.165783,-0.855475,0.490589,-0.344562,-0.244470,0.088970,-0.420263,-44.282127,12.125916,,,,,,,
1504281651.285226,-2.816364,1.015504,2.214950,0.897895,-0.836078,0.814361,-0.168451,-0.849746,0.499555,-0.329031,-0.269928,0.102481,-0.420263,-44.282127,12.125916,,,,,,,
1504281651.295236,-2.816033,1.004257,2.204727,0.884893,-0.813673,0.890084,-0.171663,-0.843763,0.508523,-0.294646,-0.281252,0.129279,-0.494390,-44.134102,12.949615,,,,,,,
1504281651.305245,-2.813978,0.993195,2.193799,0.846431,-0.669528,0.917516,-0.175700,-0.837775,0.516975,-0.245549,-0.280816,0.154046,-0.494390,-44.134102,12.949615,,,,,,,
1504281651.315255,-2.809664,0.982525,2.182787,0.803595,-0.421957,0.918073,-0.180831,-0.831901,0.524633,-0.206589,-0.264488,0.165003,-1.468451,-44.064980,13.696686,,,,,,,
1504281651.325265,-2.803337,0.972114,2.172019,0.781844,-0.213974,0.905927,-0.187011,-0.826079,0.531621,-0.181962,-0.217546,0.158092,-1.468451,-44.064980,13.696686,,,,,,,
1504281651.335275,-2.796182,0.961771,2.161834,0.781782,-0.100998,0.885447,-0.193692,-0.820206,0.538280,-0.164828,-0.169983,0.127995,-2.293295,-43.769875,14.292389,,,,,,,
1504281651.345285,-2.789183,0.951313,2.152468,0.804690,-0.057465,0.854455,-0.200405,-0.814178,0.544932,-0.153828,-0.138931,0.103948,-2.293295,-43.769875,14.292389,,,,,,,
1504281651.355294,-2.782791,0.940678,2.144093,0.831719,-0.034209,0.820304,-0.206914,-0.807958,0.551717,-0.145748,-0.116847,0.094020,-3.191732,-43.850731,15.190765,,,,,,,
1504281651.365304,-2.776920,0.930025,2.136712,0.843990,0.001971,0.771161,-0.213206,-0.801635,0.558502,-0.133687,-0.106095,0.087509,-3.191732,-43.850731,15.190765,,,,,,,
1504281651.375314,-2.771483,0.919574,2.130370,0.832924,0.053266,0.718749,-0.219258,-0.795344,0.565115,-0.128642,-0.078497,0.076212,-3.640417,-43.704979,16.313538,,,,,,,
1504281651.385324,-2.765827,0.909475,2.124874,0.812678,0.157915,0.667294,-0.225388,-0.789181,0.571308,-0.128097,-0.050006,0.069103,-3.640417,-43.704979,16.313538,,,,,,,
1504281651.395303,-2.759780,0.899864,2.120235,0.776496,0.263773,0.604068,-0.231653,-0.783242,0.576947,-0.121237,-0.023398,0.065890,-4.090948,-43.183052,16.833527,,,,,,,
1504281651.405313,-2.753655,0.891006,2.116438,0.716540,0.329338,0.536602,-0.237798,-0.777705,0.581917,-0.105082,-0.003255,0.045997,-4.090948,-43.183052,16.833527,,,,,,,
1504281651.415322,-2.747825,0.882728,2.113358,0.684922,0.343509,0.481017,-0.243649,-0.772474,0.586446,-0.093143,0.017286,0.022227,-4.915594,-42.962959,17.429810,,,,,,,
1504281651.425332,-2.742951,0.874980,2.111039,0.646423,0.293808,0.419129,-0.248820,-0.767531,0.590750,-0.083120,0.037611,-0.000891,-4.915594,-42.962959,17.429810,,,,,,,
1504281651.435342,-2.739297,0.867965,2.109541,0.594070,0.236776,0.342286,-0.253079,-0.763015,0.594777,-0.073276,0.061492,-0.028660,-5.514578,-42.967003,18.103333,,,,,,,
1504281651.445352,-2.736452,0.861781,2.108803,0.532429,0.230916,0.268554,-0.256624,-0.759004,0.598379,-0.065580,0.089555,-0.041937,-5.514578,-42.967003,18.103333,,,,,,,
1504281651.455361,-2.733733,0.856507,2.108798,0.468219,0.290136,0.188283,-0.259835,-0.755559,0.601346,-0.055183,0.105855,-0.032345,-5.965292,-42.370064,18.622711,,,,,,,
1504281651.465371,-2.730259,0.853071,2.109401,0.244979,0.444492,0.057401,-0.262959,-0.753303,0.602816,-0.044856,0.114937,-0.010774,-5.965292,-42.370064,18.622711,,,,,,,
1504281651.475381,-2.724413,0.854943,2.110182,-0.292656,0.708110,-0.183094,-0.265907,-0.754533,0.599978,0.029045,0.085420,-0.115649,-6.189657,-42.446678,18.922729,,,,,,,
1504281651.485391,-2.715630,0.863133,2.110058,-0.898230,0.914690,-0.370235,-0.268603,-0.759883,0.591972,0.122943,-0.000447,-0.372962,-6.189657,-42.446678,18.922729,,,,,,,
1504281651.495400,-2.705031,0.876887,2.108143,-1.424802,0.903166,-0.488542,-0.270417,-0.768752,0.579565,0.100709,-0.066865,-0.476842,-6.265326,-42.221870,18.845856,,,,,,,
1504281651.505410,-2.694643,0.894254,2.104651,-1.719425,0.708528,-0.557023,-0.270611,-0.779742,0.564599,0.062298,-0.091214,-0.455544,-6.265326,-42.221870,18.845856,,,,,,,
1504281651.515420,-2.686164,0.912596,2.100512,-1.744800,0.462596,-0.569442,-0.269052,-0.791094,0.549346,0.027078,-0.027234,-0.355513,-5.965780,-42.892677,17.426636,,,,,,,
1504281651.525430,-2.681300,0.928975,2.097637,-1.459990,0.189585,-0.566332,-0.265929,-0.801007,0.536349,0.026030,0.091458,-0.158007,-5.965780,-42.892677,17.426636,,,,,,,
1504281651.535440,-2.680403,0.942554,2.097199,-1.158192,0.026213,-0.584734,-0.261545,-0.809062,0.526320,0.063852,0.134471,0.058488,-5.816946,-43.413719,15.780914,,,,,,,
1504281651.545449,-2.681005,0.954330,2.098281,-0.992720,0.045086,-0.573807,-0.256976,-0.815927,0.517906,0.103365,0.007837,0.114631,-5.816946,-43.413719,15.780914,,,,,,,
1504281651.555459,-2.680662,0.965182,2.099404,-0.935548,0.154320,-0.523732,-0.253200,-0.822152,0.509858,0.106746,-0.109046,0.037170,-4.991644,-43.933662,15.111877,,,,,,,
1504281651.565469,-2.678273,0.976026,2.099347,-0.971178,0.264321,-0.477022,-0.250418,-0.828277,0.501246,0.077154,-0.165985,-0.040797,-4.991644,-43.933662,15.111877,,,,,,,
1504281651.575479,-2.675578,0.986401,2.099405,-0.900727,0.276515,-0.464113,-0.247893,-0.834046,0.492866,0.101973,-0.202575,-0.083442,-4.542746,-44.079704,14.139099,,,,,,,
1504281651.585488,-2.674152,0.995392,2.100370,-0.735058,0.189885,-0.447662,-0.245206,-0.838973,0.485797,0.175230,-0.192049,-0.014499,-4.542746,-44.079704,14.139099,,,,,,,
1504281651.595498,-2.674359,1.002765,2.101977,-0.579322,0.085184,-0.393838,-0.242313,-0.842961,0.480313,0.165043,-0.173686,0.004917,-4.317968,-44.302650,13.616333,,,,,,,
1504281651.605508,-2.675467,1.008807,2.103557,-0.487503,-0.003014,-0.333748,-0.239488,-0.846197,0.476022,0.150529,-0.179499,-0.034387,-4.317968,-44.302650,13.616333,,,,,,,
1504281651.615518,-2.676652,1.014635,2.104192,-0.515121,-0.085962,-0.277078,-0.236708,-0.849288,0.471889,0.134626,-0.115007,-0.072521,-4.319021,-44.375999,12.791870,,,,,,,
1504281651.625527,-2.676700,1.020209,2.103356,-0.490565,-0.028714,-0.188542,-0.234559,-0.852217,0.467662,0.095399,-0.014467,-0.124019,-4.319021,-44.375999,12.791870,,,,,,,
1504281651.635537,-2.675496,1.024212,2.102471,-0.346902,0.094717,-0.129803,-0.233587,-0.854305,0.464328,0.016989,0.106380,0.042600,-4.018911,-44.599052,12.494293,,,,,,,
1504281651.645516,-2.672978,1.027465,2.102046,-0.296550,0.255206,-0.127864,-0.233499,-0.855991,0.461256,0.023737,0.117466,0.288316,-4.018911,-44.599052,12.494293,,,,,,,
1504281651.655526,-2.668543,1.031265,2.101015,-0.394772,0.383882,-0.122924,-0.234059,-0.857949,0.457318,0.030949,0.043908,0.228275,-3.494711,-44.595650,11.970612,,,,,,,
1504281651.665536,-2.661791,1.035902,2.098367,-0.496846,0.457134,-0.076265,-0.235302,-0.860323,0.452192,-0.004734,-0.001204,0.095446,-3.494711,-44.595650,11.970612,,,,,,,
1504281651.675546,-2.653585,1.040745,2.093816,-0.546712,0.405253,-0.001541,-0.237049,-0.862781,0.446561,-0.041561,-0.026776,0.027804,-3.869772,-44.746742,11.670776,,,,,,,
1504281651.685556,-2.645347,1.045475,2.087896,-0.557544,0.282746,0.048824,-0.238774,-0.865163,0.440999,-0.063488,-0.051128,0.004862,-3.869772,-44.746742,11.670776,,,,,,,
1504281651.695565,-2.637502,1.050311,2.081266,-0.590302,0.195626,0.059595,-0.240202,-0.867578,0.435444,-0.059908,-0.065466,-0.017872,-3.869131,-45.270836,11.224701,,,,,,,
1504281651.705575,-2.630118,1.055215,2.074560,-0.590658,0.144491,0.049010,-0.241326,-0.870006,0.429943,-0.048393,-0.079777,-0.028683,-3.869131,-45.270836,11.224701,,,,,,,
1504281651.715585,-2.622851,1.059850,2.067993,-0.537272,0.154698,0.057624,-0.242441,-0.872282,0.424671,-0.055700,-0.068651,-0.006611,-3.870337,-45.194496,10.549133,,,,,,,
1504281651.725595,-2.615668,1.063438,2.061947,-0.432453,0.201763,0.081206,-0.243913,-0.874031,0.420210,-0.096236,-0.086418,0.075533,-3.870337,-45.194496,10.549133,,,,,,,
1504281651.735599,-2.608270,1.066334,2.056366,-0.373269,0.267338,0.085462,-0.245727,-0.875434,0.416212,-0.115463,-0.146370,0.136476,-4.095419,-45.344902,10.249725,,,,,,,
1504281651.745609,-2.601489,1.069342,2.051528,-0.384941,0.238724,0.026785,-0.247189,-0.876884,0.412276,-0.067676,-0.170387,0.070726,-4.095419,-45.344902,10.249725,,,,,,,
1504281651.755619,-2.596730,1.072947,2.047949,-0.394933,0.135534,-0.060577,-0.247508,-0.878612,0.408389,-0.012014,-0.117085,-0.030901,-3.871313,-45.118446,10.023560,,,,,,,
1504281651.765629,-2.593928,1.076948,2.045785,-0.397113,0.081287,-0.138406,-0.246819,-0.880515,0.404689,-0.003883,-0.045892,-0.046993,-3.871313,-45.118446,10.023560,,,,,,,
1504281651.775637,-2.592325,1.081525,2.045091,-0.410245,0.112400,-0.236684,-0.245361,-0.882675,0.400852,-0.006242,-0.004562,-0.007938,-4.321356,-45.419426,9.499695,,,,,,,
1504281651.785647,-2.591315,1.086759,2.045958,-0.428211,0.210678,-0.327618,-0.243346,-0.885124,0.396660,-0.001908,0.032356,0.024086,-4.321356,-45.419426,9.499695,,,,,,,
1504281651.795657,-2.590093,1.092374,2.047921,-0.431329,0.320517,-0.382255,-0.241223,-0.887722,0.392123,-0.001743,0.072140,0.036939,-3.946249,-45.642143,9.202332,,,,,,,
1504281651.805667,-2.588943,1.098213,2.050483,-0.438495,0.339788,-0.412188,-0.238948,-0.890396,0.387427,-0.006932,0.097335,0.035135,-3.946249,-45.642143,9.202332,,,,,,,
1504281651.815676,-2.588595,1.104429,2.053203,-0.473250,0.248457,-0.435570,-0.236171,-0.893208,0.382627,-0.020710,0.132313,-0.002881,-3.572378,-45.414711,8.826538,,,,,,,
1504281651.825686,-2.588995,1.111158,2.055105,-0.548189,0.091352,-0.422614,-0.232858,-0.896213,0.377597,-0.046316,0.185932,-0.046328,-3.572378,-45.414711,8.826538,,,,,,,
1504281651.835696,-2.589068,1.118669,2.055156,-0.672161,-0.044064,-0.384164,-0.229291,-0.899520,0.371873,-0.061709,0.209395,-0.068269,-3.498053,-45.413475,8.376740,,,,,,,
1504281651.845706,-2.588612,1.127053,2.053181,-0.787346,-0.156095,-0.358548,-0.225492,-0.903151,0.365338,-0.063448,0.201384,-0.075711,-3.498053,-45.413475,8.376740,,,,,,,
1504281651.855716,-2.587709,1.135882,2.049813,-0.829627,-0.229291,-0.341414,-0.221619,-0.906906,0.358338,-0.061005,0.221863,-0.054612,-2.973806,-45.335365,8.002441,,,,,,,
1504281651.865726,-2.587675,1.144850,2.047126,-0.816649,-0.240000,-0.393675,-0.217344,-0.910648,0.351400,-0.043139,0.249973,-0.017049,-2.973806,-45.335365,8.002441,,,,,,,
1504281651.875736,-2.587511,1.154501,2.044828,-0.887486,-0.185027,-0.435524,-0.212767,-0.914593,0.343874,0.003218,0.164944,0.012312,-2.599112,-45.707039,7.181152,,,,,,,
1504281651.885746,-2.587258,1.164676,2.042099,-0.929534,-0.244346,-0.442964,-0.207944,-0.918661,0.335890,0.005338,0.023305,-0.034956,-2.599112,-45.707039,7.181152,,,,,,,
1504281651.895756,-2.587112,1.175101,2.038060,-0.984387,-0.408038,-0.403276,-0.202940,-0.922729,0.327700,-0.028902,-0.078202,-0.123140,-2.149939,-45.778679,6.507812,,,,,,,
1504281651.905735,-2.587584,1.185755,2.031535,-1.045057,-0.742217,-0.325939,-0.197602,-0.926783,0.319416,-0.043685,-0.111654,-0.195530,-2.149939,-45.778679,6.507812,,,,,,,
1504281651.915745,-2.590331,1.195601,2.023985,-0.955007,-1.053108,-0.267595,-0.191935,-0.930436,0.312169,-0.030218,-0.019073,-0.267461,-1.475958,-45.998543,5.461182,,,,,,,
1504281651.925753,-2.596274,1.204438,2.017039,-0.859903,-1.286218,-0.242469,-0.185804,-0.933638,0.306263,0.016203,0.153822,-0.166614,-1.475958,-45.998543,5.461182,,,,,,,
1504281651.935763,-2.603965,1.211020,2.013369,-0.516036,-0.964069,-0.216823,-0.180292,-0.935976,0.302397,0.064387,0.321642,-0.083937,-1.327017,-46.295479,4.263763,,,,,,,
1504281651.945773,-2.611980,1.214926,2.015421,-0.248301,-0.479227,-0.282326,-0.176015,-0.937344,0.300676,0.041661,0.428371,0.286055,-1.327017,-46.295479,4.263763,,,,,,,
1504281651.955783,-2.617610,1.219889,2.021597,-0.372186,0.178416,-0.488642,-0.171989,-0.939061,0.297630,0.066536,0.463841,0.454949,-0.728537,-45.917030,3.887421,,,,,,,
1504281651.965792,-2.621024,1.226275,2.030341,-0.393127,0.561252,-0.597161,-0.167986,-0.941237,0.293007,0.109423,0.339888,0.161827,-0.728537,-45.917030,3.887421,,,,,,,
1504281651.975802,-2.624668,1.233170,2.041896,-0.416694,0.749104,-0.705340,-0.163706,-0.943544,0.287968,0.077784,0.419130,0.155544,-0.503119,-45.991325,4.038544,,,,,,,
1504281651.985812,-2.628257,1.241874,2.053660,-0.660536,0.761848,-0.782638,-0.158632,-0.946391,0.281389,0.073915,0.546794,0.188887,-0.503119,-45.991325,4.038544,,,,,,,
1504281651.995822,-2.627750,1.254745,2.061348,-1.097575,0.764463,-0.860253,-0.152775,-0.950470,0.270678,0.066059,0.478745,-0.043017,0.245676,-45.911598,3.364807,,,,,,,
1504281652.005831,-2.624427,1.270225,2.065399,-1.358479,0.696277,-0.855248,-0.146381,-0.955167,0.257348,0.014240,0.401548,-0.153619,0.245676,-45.911598,3.364807,,,,,,,
1504281652.015841,-2.598135,1.281943,2.038335,-1.345886,-0.186543,0.555302,-0.147297,-0.958571,0.243813,-0.064525,0.172988,-0.081368,0.843790,-45.831673,2.240723,,,,,,,
1504281652.025851,-2.545182,1.282468,1.977521,-0.895107,-0.483183,1.472437,-0.159713,-0.958721,0.235259,-0.584840,-1.121724,-0.261489,0.843790,-45.831673,2.240723,,,,,,,
1504281652.035861,-2.489905,1.281497,1.920261,-0.884680,0.187161,1.311163,-0.173031,-0.958444,0.226815,-0.365391,-1.066412,-0.095056,0.093088,-46.357338,0.892761,,,,,,,
1504281652.045871,-2.436558,1.282538,1.871194,-0.969907,0.764751,0.926799,-0.184232,-0.958740,0.216507,0.253996,-0.278137,0.121460,0.093088,-46.357338,0.892761,,,,,,,
1504281652.055881,-2.392267,1.284520,1.835834,-0.727410,1.084984,0.523176,-0.192343,-0.959302,0.206746,0.331244,-0.154223,0.106105,-0.957891,-46.286018,0.364624,,,,,,,
1504281652.065891,-2.360827,1.285103,1.813161,-0.407004,0.906664,0.386351,-0.198354,-0.959466,0.200200,0.177983,-0.210761,-0.060918,-0.957891,-46.286018,0.364624,,,,,,,
1504281652.075901,-2.340922,1.284097,1.798670,-0.185868,0.511686,0.339398,-0.202992,-0.959182,0.196884,0.180866,-0.421448,-0.188583,-1.709127,-46.287743,-0.462280,,,,,,,
1504281652.085911,-2.320564,1.283869,1.784076,-0.342539,0.649401,0.312198,-0.207117,-0.959118,0.192860,0.334193,-0.351154,-0.240437,-1.709127,-46.287743,-0.462280,,,,,,,
1504281652.095919,-2.304624,1.283813,1.769581,-0.270048,0.077693,0.264232,-0.210205,-0.959102,0.189570,0.229691,0.056835,-0.413356,-2.159048,-46.364616,-0.537811,,,,,,,
1504281652.105929,-2.308383,1.285067,1.768685,-0.016221,-0.643165,-0.228264,-0.208601,-0.959456,0.189550,0.262663,-0.050386,0.042948,-2.159048,-46.364616,-0.537811,,,,,,,
1504281652.115939,-2.325444,1.286786,1.778138,0.064977,-0.778074,-0.252436,-0.204135,-0.959939,0.191951,0.327533,-0.590140,0.446263,-2.459600,-46.365227,-0.913544,,,,,,,
1504281652.125949,-2.328615,1.288072,1.775899,-0.208854,-0.439354,0.001601,-0.202629,-0.960299,0.191749,-0.086281,-0.805738,0.227791,-2.459600,-46.365227,-0.913544,,,,,,,
1504281652.135958,-2.321186,1.290459,1.765129,-0.431650,-0.263855,0.029726,-0.202370,-0.960962,0.188675,-0.370704,-0.504339,0.081131,-2.460028,-46.065666,-0.690826,,,,,,,
1504281652.145968,-2.309157,1.294032,1.750707,-0.560732,-0.147675,-0.001658,-0.202085,-0.961945,0.183915,-0.234836,-0.088806,0.039169,-2.460028,-46.065666,-0.690826,,,,,,,
1504281652.155947,-2.294937,1.298795,1.735623,-0.637914,0.003328,-0.115202,-0.201245,-0.963235,0.177985,-0.052021,0.138253,0.003534,-2.386755,-45.913536,-1.591766,,,,,,,
1504281652.165957,-2.281083,1.304250,1.721331,-0.633556,-0.017965,-0.167460,-0.199704,-0.964686,0.171751,0.053418,0.207240,0.056429,-2.386755,-45.913536,-1.591766,,,,,,,
1504281652.175967,-2.265459,1.310460,1.705203,-0.689339,0.060312,-0.195447,-0.197757,-0.966304,0.164772,0.096026,0.034693,0.021736,-2.012030,-45.986259,-1.890289,,,,,,,
1504281652.185977,-2.265862,1.311998,1.707100,0.119205,0.082346,-0.120434,-0.196549,-0.966698,0.163900,0.025009,0.343423,0.066508,-2.012030,-45.986259,-1.890289,,,,,,,
1504281652.195987,-2.275282,1.309695,1.715204,0.332230,-0.225466,0.101430,-0.196692,-0.966106,0.167185,0.094138,0.181881,0.050420,-1.862356,-45.985130,-2.114929,,,,,,,
1504281652.205997,-2.285697,1.305343,1.722618,0.470523,-0.335420,0.221413,-0.198113,-0.964974,0.171980,0.093652,-0.028221,-0.118803,-1.862356,-45.985130,-2.114929,,,,,,,
1504281652.216007,-2.298336,1.300296,1.732565,0.543571,-0.296556,0.184112,-0.199559,-0.963637,0.177706,0.009312,0.077743,-0.077761,-2.087164,-46.061150,-2.114899,,,,,,,
1504281652.226017,-2.314463,1.296347,1.746711,0.541988,-0.210036,-0.001772,-0.199466,-0.962574,0.183476,0.009556,0.044514,0.002483,-2.087164,-46.061150,-2.114899,,,,,,,
1504281652.236027,-2.332001,1.293658,1.763328,0.509210,-0.128632,-0.145004,-0.198091,-0.961842,0.188731,0.022157,-0.004802,-0.014384,-2.160360,-46.288124,-1.288361,,,,,,,
1504281652.246036,-2.349011,1.292157,1.780534,0.402799,-0.042370,-0.277698,-0.195880,-0.961431,0.193086,0.020175,0.017720,-0.016923,-2.160360,-46.288124,-1.288361,,,,,,,
1504281652.256046,-2.366331,1.293435,1.798979,0.209406,0.055352,-0.493821,-0.191646,-0.961781,0.195572,0.014156,0.096730,-0.016052,-2.385214,-46.214592,-1.064514,,,,,,,
1504281652.266055,-2.383029,1.297964,1.816907,-0.049694,0.068377,-0.720582,-0.185356,-0.963012,0.195581,-0.065666,0.077041,0.058448,-2.385214,-46.214592,-1.064514,,,,,,,
1504281652.276065,-2.398570,1.305991,1.834120,-0.352326,0.117975,-0.931472,-0.177059,-0.965144,0.192739,-0.082676,0.029627,0.075129,-1.784384,-46.362480,-0.761871,,,,,,,
1504281652.286074,-2.413919,1.317712,1.853295,-0.595011,0.407990,-1.224872,-0.166544,-0.968145,0.186973,-0.045446,0.067296,0.013527,-1.784384,-46.362480,-0.761871,,,,,,,
1504281652.296084,-2.428356,1.332274,1.874790,-0.786005,0.713415,-1.375178,-0.154586,-0.971688,0.178677,0.044707,-0.005302,0.077122,-0.810339,-46.207359,-1.135590,,,,,,,
1504281652.306094,-2.444050,1.347405,1.899330,-0.772087,0.834809,-1.404188,-0.142302,-0.975152,0.169792,0.029250,-0.107749,0.099709,-0.810339,-46.207359,-1.135590,,,,,,,
1504281652.316104,-2.462282,1.360480,1.925537,-0.596188,0.682889,-1.190135,-0.131161,-0.977965,0.162424,-0.005649,-0.156740,0.033072,0.537806,-45.825096,-1.735107,,,,,,,
1504281652.326113,-2.477413,1.368273,1.945258,-0.271131,0.305627,-0.652003,-0.123987,-0.979562,0.158384,-0.033927,-0.239951,-0.043973,0.537806,-45.825096,-1.735107,,,,,,,
1504281652.336123,-2.487530,1.369671,1.954596,0.084693,-0.222145,-0.106081,-0.121544,-0.979842,0.158542,-0.101097,-0.277085,-0.083439,1.886927,-45.967384,-2.555664,,,,,,,
1504281652.346133,-2.491649,1.367585,1.954595,0.163696,-0.440471,0.176235,-0.122127,-0.979423,0.160669,-0.148274,-0.199150,-0.068918,1.886927,-45.967384,-2.555664,,,,,,,
1504281652.356143,-2.488366,1.366111,1.947661,-0.027339,-0.302520,0.193807,-0.123531,-0.979125,0.161413,-0.077961,-0.098634,-0.009344,1.886927,-45.743126,-2.182373,,,,,,,
1504281652.366153,-2.477899,1.366960,1.935503,-0.275002,-0.095812,0.123632,-0.124702,-0.979297,0.159457,-0.009423,-0.039731,0.039274,1.886927,-45.743126,-2.182373,,,,,,,
1504281652.376163,-2.462702,1.369583,1.919924,-0.433910,0.013177,0.070862,-0.125497,-0.979825,0.155544,-0.001960,-0.026141,0.044621,1.886667,-45.817528,-2.481781,,,,,,,
1504281652.386173,-2.439344,1.373212,1.896738,-0.499915,0.046732,0.095238,-0.126798,-0.980544,0.149855,-0.010638,-0.036226,-0.004957,1.886667,-45.817528,-2.481781,,,,,,,
1504281652.396183,-2.417013,1.375759,1.874222,-0.451546,0.013208,0.183975,-0.128456,-0.981041,0.145115,-0.009361,-0.074807,-0.016941,1.886591,-45.966927,-2.780640,,,,,,,
1504281652.406162,-2.400404,1.376072,1.856601,-0.173252,-0.104232,0.245507,-0.130642,-0.981101,0.142736,0.002346,-0.078301,-0.000280,1.886591,-45.966927,-2.780640,,,,,,,
1504281652.416172,-2.393866,1.373638,1.847477,0.132228,-0.289033,0.310406,-0.133195,-0.980627,0.143629,0.025896,-0.030542,0.027972,1.435877,-45.818504,-3.007904,,,,,,,
1504281652.426182,-2.414975,1.369517,1.863874,0.288519,-0.460888,0.360075,-0.132818,-0.979811,0.149428,0.045187,-0.014772,0.039262,1.435877,-45.818504,-3.007904,,,,,,,
1504281652.436190,-2.416616,1.364720,1.860207,0.311383,-0.530351,0.370911,-0.135688,-0.978841,0.153162,0.056968,-0.031077,0.022757,1.361444,-46.043846,-3.006378,,,,,,,
1504281652.446200,-2.419928,1.360221,1.858608,0.316470,-0.464294,0.299301,-0.138088,-0.977911,0.156915,0.062557,-0.049357,0.010306,1.361444,-46.043846,-3.006378,,,,,,,
1504281652.456210,-2.425013,1.356395,1.860034,0.299846,-0.330863,0.209375,-0.139745,-0.977104,0.160435,0.050466,-0.043328,0.029262,0.611567,-46.047371,-2.933258,,,,,,,
1504281652.466220,-2.444330,1.352465,1.876393,0.227100,-0.241799,0.178136,-0.139084,-0.976260,0.166047,0.028199,-0.025128,0.047835,0.611567,-46.047371,-2.933258,,,,,,,
1504281652.476229,-2.446051,1.349779,1.876428,0.217305,-0.140473,0.165132,-0.140478,-0.975675,0.168299,0.001638,-0.001071,0.031836,0.461603,-45.973335,-2.784180,,,,,,,
1504281652.486239,-2.461072,1.347132,1.890653,0.466673,-0.119800,-0.170704,-0.139559,-0.975091,0.172396,-0.022490,0.094186,0.011900,0.461603,-45.973335,-2.784180,,,,,,,
1504281652.496249,-2.489467,1.344807,1.919966,0.618997,0.099774,-0.410993,-0.135983,-0.974573,0.178090,-0.061465,0.253473,0.014125,0.238184,-46.200691,-2.108032,,,,,,,
1504281652.506259,-2.517638,1.341540,1.952401,0.717210,0.399421,-0.369722,-0.132772,-0.973836,0.184433,-0.097651,0.206990,0.077317,0.238184,-46.200691,-2.108032,,,,,,,
1504281652.516269,-2.539636,1.337105,1.979314,0.710018,0.400380,-0.209626,-0.131128,-0.972818,0.190866,-0.069327,0.075220,0.034689,0.838327,-46.123451,-1.882111,,,,,,,
1504281652.526278,-2.548903,1.333399,1.991489,0.524993,0.165200,-0.069702,-0.131366,-0.971953,0.195062,-0.039959,0.005157,-0.067911,0.838327,-46.123451,-1.882111,,,,,,,
1504281652.536288,-2.555538,1.330880,1.998912,0.234430,0.036443,0.009009,-0.131423,-0.971358,0.197969,-0.040040,-0.010866,-0.074739,1.214167,-46.048103,-1.206757,,,,,,,
1504281652.546299,-2.555876,1.330512,1.999772,-0.014936,0.064087,-0.006415,-0.131554,-0.971270,0.198312,-0.031623,0.003848,0.007652,1.214167,-46.048103,-1.206757,,,,,,,
1504281652.556309,-2.554188,1.331822,1.999143,-0.138985,0.117398,-0.078240,-0.131183,-0.971581,0.197030,-0.002545,0.002053,0.054664,0.989649,-45.975014,-0.757843,,,,,,,
1504281652.566318,-2.561964,1.332702,2.007983,-0.111024,0.127844,-0.104896,-0.129179,-0.971789,0.197329,0.014524,-0.013257,0.026914,0.989649,-45.975014,-0.757843,,,,,,,
1504281652.576328,-2.563171,1.333402,2.010353,0.002776,0.101301,-0.074765,-0.128568,-0.971954,0.196915,-0.002749,-0.029740,0.001114,1.214426,-45.973701,-0.907288,,,,,,,
1504281652.586338,-2.565830,1.332975,2.013911,0.101606,0.073810,-0.039321,-0.128270,-0.971854,0.197604,-0.027003,-0.028482,0.003217,1.214426,-45.973701,-0.907288,,,,,,,
1504281652.596348,-2.568970,1.332114,2.017906,0.122954,0.078956,-0.032889,-0.128103,-0.971650,0.198709,-0.030115,-0.010268,0.005560,1.138865,-45.749031,-0.909149,,,,,,,
1504281652.606356,-2.567812,1.330204,2.018018,0.074249,0.115612,-0.049041,-0.129340,-0.971197,0.200119,-0.019723,0.009771,0.008179,1.138865,-45.749031,-0.909149,,,,,,,
1504281652.616366,-2.569218,1.330415,2.020866,0.002026,0.140743,-0.074828,-0.128947,-0.971247,0.200128,-0.010564,0.018489,0.006842,1.214228,-45.898705,-0.907837,,,,,,,
1504281652.626376,-2.569870,1.331170,2.023106,-0.042610,0.153912,-0.088805,-0.128420,-0.971427,0.199595,-0.006224,0.014380,-0.000804,1.214228,-45.898705,-0.907837,,,,,,,
1504281652.636386,-2.570505,1.332006,2.025350,-0.037284,0.152802,-0.088794,-0.127854,-0.971625,0.198993,-0.006027,0.008536,-0.004154,1.289301,-45.973213,-0.982117,,,,,,,
1504281652.646395,-2.571477,1.332608,2.027802,-0.008642,0.135512,-0.083376,-0.127345,-0.971767,0.198626,-0.000890,-0.000218,-0.000231,1.289301,-45.973213,-0.982117,,,,,,,
1504281652.656375,-2.573323,1.332893,2.030931,0.023142,0.112863,-0.074742,-0.126829,-0.971834,0.198627,0.008345,-0.006727,0.002194,1.290064,-46.273216,-0.979858,,,,,,,
1504281652.666384,-2.575459,1.332973,2.034126,0.034654,0.091445,-0.064010,-0.126363,-0.971853,0.198832,0.017247,-0.010447,0.005621,1.290064,-46.273216,-0.979858,,,,,,,
1504281652.676394,-2.577346,1.333044,2.036779,0.023707,0.062755,-0.054372,-0.125951,-0.971870,0.199012,0.023808,-0.014168,0.007165,1.289865,-46.198219,-0.980438,,,,,,,
1504281652.686404,-2.583544,1.333970,2.043395,0.007532,0.044760,-0.049037,-0.124238,-0.972087,0.199025,0.019685,-0.007985,0.000408,1.289865,-46.198219,-0.980438,,,,,,,
1504281652.696414,-2.584780,1.334246,2.045073,-0.005327,0.038471,-0.047981,-0.123850,-0.972152,0.198950,0.015833,-0.002366,-0.003012,1.590540,-46.197762,-0.529663,,,,,,,
1504281652.706424,-2.586022,1.334579,2.046659,-0.009682,0.026786,-0.049036,-0.123433,-0.972230,0.198829,0.020924,-0.004378,-0.001030,1.590540,-46.197762,-0.529663,,,,,,,
1504281652.716434,-2.587227,1.334894,2.047994,-0.009902,0.003338,-0.042590,-0.123031,-0.972304,0.198717,0.024887,-0.007463,-0.002077,1.590357,-46.122765,-0.530243,,,,,,,
1504281652.726444,-2.591235,1.336006,2.051876,-0.003648,-0.011642,-0.037221,-0.121668,-0.972563,0.198287,0.015360,-0.002901,-0.006346,1.590357,-46.122765,-0.530243,,,,,,,
1504281652.736422,-2.592627,1.336177,2.053116,0.001592,-0.020216,-0.031860,-0.121305,-0.972603,0.198315,0.010084,-0.000191,-0.005520,1.290552,-46.199120,-0.530426,,,,,,,
1504281652.746432,-2.593940,1.336303,2.054312,0.003771,-0.013841,-0.030800,-0.120981,-0.972632,0.198369,0.005716,-0.002649,-0.004476,1.290552,-46.199120,-0.530426,,,,,,,
1504281652.756441,-2.594895,1.336687,2.055211,0.001696,-0.006365,-0.030818,-0.120598,-0.972721,0.198165,0.000526,-0.004970,-0.003326,1.439829,-46.047997,-0.756165,,,,,,,
1504281652.766451,-2.594924,1.337067,2.055328,-0.006724,0.005431,-0.035123,-0.120400,-0.972809,0.197853,-0.003227,-0.006790,-0.003578,1.439829,-46.047997,-0.756165,,,,,,,
1504281652.776461,-2.594668,1.337362,2.055288,-0.013010,0.019338,-0.036225,-0.120301,-0.972878,0.197577,-0.005142,-0.007103,-0.001165,1.665140,-46.122124,-0.680084,,,,,,,
1504281652.786471,-2.593356,1.337603,2.054368,-0.019297,0.034309,-0.035193,-0.120438,-0.972933,0.197219,-0.009399,-0.006071,-0.001281,1.665140,-46.122124,-0.680084,,,,,,,
1504281652.796480,-2.591404,1.337782,2.052934,-0.017073,0.047079,-0.033075,-0.120731,-0.972975,0.196834,-0.011501,-0.003176,-0.002331,1.515207,-46.197655,-0.754852,,,,,,,
1504281652.806490,-2.589137,1.337851,2.051325,-0.005281,0.058699,-0.025600,-0.121142,-0.972991,0.196503,-0.012616,-0.001252,-0.003312,1.515207,-46.197655,-0.754852,,,,,,,
1504281652.816499,-2.586878,1.337869,2.049860,0.003357,0.073546,-0.022407,-0.121577,-0.972995,0.196214,-0.012121,-0.001721,-0.004243,1.814447,-45.896294,-0.756378,,,,,,,
1504281652.826509,-2.584842,1.337961,2.048772,0.009905,0.092674,-0.021361,-0.121929,-0.973016,0.195891,-0.009511,-0.002951,-0.006407,1.814447,-45.896294,-0.756378,,,,,,,
1504281652.836519,-2.582988,1.338106,2.048032,0.012160,0.108640,-0.020317,-0.122217,-0.973050,0.195545,-0.007178,-0.004917,-0.007175,1.889566,-45.896111,-0.681213,,,,,,,
1504281652.846529,-2.581496,1.338299,2.047831,0.015496,0.125663,-0.020341,-0.122409,-0.973094,0.195203,-0.004376,-0.006383,-0.007383,1.889566,-45.896111,-0.681213,,,,,,,
1504281652.856539,-2.580653,1.338621,2.048441,0.019931,0.144811,-0.023570,-0.122406,-0.973168,0.194834,0.000702,-0.007133,-0.008540,1.889566,-45.896111,-0.681213,,,,,,,
1504281652.866549,-2.580272,1.339112,2.049629,0.022161,0.154386,-0.027855,-0.122227,-0.973281,0.194383,0.005421,-0.007752,-0.011583,1.889566,-45.896111,-0.681213,,,,,,,
1504281652.876559,-2.580482,1.339682,2.051481,0.017966,0.162945,-0.028948,-0.121890,-0.973412,0.193939,0.009723,-0.007087,-0.011566,1.890314,-45.971855,-0.305634,,,,,,,
1504281652.886568,-2.580822,1.340261,2.053481,0.013711,0.164045,-0.030027,-0.121525,-0.973544,0.193503,0.010639,-0.005750,-0.010337,1.890314,-45.971855,-0.305634,,,,,,,
1504281652.896578,-2.581159,1.340947,2.055465,0.006227,0.163038,-0.028974,-0.121104,-0.973701,0.192978,0.012645,-0.005868,-0.011307,1.890436,-46.196266,-0.603943,,,,,,,
1504281652.906557,-2.581345,1.341728,2.057243,-0.002374,0.155647,-0.027912,-0.120664,-0.973878,0.192356,0.013593,-0.005934,-0.012196,1.890436,-46.196266,-0.603943,,,,,,,
1504281652.916567,-2.581432,1.342576,2.058802,-0.009943,0.143984,-0.026840,-0.120209,-0.974071,0.191667,0.013733,-0.007192,-0.012697,1.965693,-46.345787,-0.677643,,,,,,,
1504281652.926577,-2.581376,1.343335,2.060117,-0.010043,0.134388,-0.022557,-0.119826,-0.974242,0.191034,0.012542,-0.007905,-0.010767,1.965693,-46.345787,-0.677643,,,,,,,
1504281652.936587,-2.581248,1.343909,2.061277,-0.012260,0.128005,-0.016147,-0.119554,-0.974371,0.190545,0.010362,-0.008554,-0.005868,2.114786,-45.895393,-0.530640,,,,,,,
1504281652.946596,-2.581346,1.344368,2.062551,-0.007039,0.117299,-0.010784,-0.119297,-0.974474,0.190178,0.011112,-0.008634,-0.003593,2.114786,-45.895393,-0.530640,,,,,,,
1504281652.956606,-2.581874,1.344764,2.064105,-0.000798,0.101255,-0.004343,-0.118992,-0.974563,0.189914,0.014057,-0.008499,-0.002597,2.339945,-46.044090,-0.678986,,,,,,,
1504281652.966616,-2.582954,1.345102,2.066042,0.001193,0.087376,0.002086,-0.118613,-0.974639,0.189763,0.017874,-0.010255,-0.000310,2.339945,-46.044090,-0.678986,,,,,,,
1504281652.976626,-2.584300,1.345410,2.068069,-0.000051,0.069262,0.008517,-0.118198,-0.974708,0.189668,0.020603,-0.012124,0.001281,1.890131,-46.121117,-0.679535,,,,,,,
1504281652.986634,-2.585958,1.345700,2.070210,-0.008738,0.052277,0.011730,-0.117734,-0.974773,0.189624,0.022825,-0.011800,0.004834,1.890131,-46.121117,-0.679535,,,,,,,
1504281652.996644,-2.587652,1.346018,2.072157,-0.014281,0.028872,0.016028,-0.117250,-0.974844,0.189559,0.024446,-0.007487,0.004487,2.115351,-46.120399,-0.528931,,,,,,,
1504281653.006655,-2.589028,1.346323,2.073560,-0.015548,0.006498,0.020331,-0.116833,-0.974911,0.189467,0.022686,-0.003925,0.003114,2.115351,-46.120399,-0.528931,,,,,,,
1504281653.016665,-2.590269,1.346560,2.074614,-0.018932,-0.015856,0.021430,-0.116477,-0.974964,0.189415,0.020423,-0.001995,0.004265,1.890024,-46.120964,-0.754517,,,,,,,
1504281653.026675,-2.591146,1.346707,2.075134,-0.020139,-0.030770,0.025721,-0.116235,-0.974997,0.189395,0.016718,0.000052,0.005338,1.890024,-46.120964,-0.754517,,,,,,,
1504281653.036684,-2.591314,1.346789,2.074877,-0.027635,-0.034971,0.024647,-0.116162,-0.975015,0.189346,0.009869,0.001489,0.006531,2.265879,-46.195183,-0.303040,,,,,,,
1504281653.046694,-2.590725,1.346788,2.073885,-0.035069,-0.032776,0.021428,-0.116274,-0.975015,0.189278,0.002138,0.003244,0.008247,2.265879,-46.195183,-0.303040,,,,,,,
1504281653.056704,-2.589224,1.346626,2.072052,-0.032879,-0.028526,0.017157,-0.116641,-0.974979,0.189239,-0.008847,0.007297,0.009339,2.115503,-46.270103,-0.677826,,,,,,,
1504281653.066714,-2.587352,1.346255,2.069974,-0.019953,-0.017966,0.009692,-0.117185,-0.974896,0.189327,-0.017596,0.009961,0.010715,2.115503,-46.270103,-0.677826,,,,,,,
1504281653.076723,-2.585481,1.345740,2.068004,-0.007068,-0.010606,0.005436,-0.117804,-0.974782,0.189534,-0.022668,0.009450,0.010219,1.964258,-45.820625,-0.756561,,,,,,,
1504281653.086733,-2.583632,1.345109,2.066183,0.006923,0.001009,0.000108,-0.118480,-0.974641,0.189838,-0.027028,0.006989,0.010434,1.964258,-45.820625,-0.756561,,,,,,,
1504281653.096743,-2.581673,1.344440,2.064356,0.010209,0.009513,-0.003099,-0.119198,-0.974491,0.190157,-0.030048,0.004810,0.009733,1.889643,-45.970970,-0.755615,,,,,,,
1504281653.106753,-2.579809,1.343863,2.062731,0.010319,0.019112,-0.009515,-0.119852,-0.974361,0.190411,-0.029059,0.003307,0.007312,1.889643,-45.970970,-0.755615,,,,,,,
1504281653.116762,-2.578160,1.343379,2.061436,0.008288,0.031919,-0.009538,-0.120417,-0.974252,0.190611,-0.025686,0.001733,0.007051,1.965509,-46.270775,-0.678223,,,,,,,
1504281653.126772,-2.576744,1.342945,2.060439,0.008340,0.038314,-0.009545,-0.120914,-0.974154,0.190798,-0.022641,0.001315,0.006437,1.965509,-46.270775,-0.678223,,,,,,,
1504281653.136782,-2.575370,1.342623,2.059550,0.006261,0.045792,-0.008492,-0.121344,-0.974081,0.190897,-0.018549,0.001562,0.003958,1.889307,-45.970512,-0.980621,,,,,,,
1504281653.146792,-2.573779,1.342394,2.058496,0.002018,0.052216,-0.003171,-0.121768,-0.974029,0.190892,-0.016538,-0.000611,0.001201,1.889307,-45.970512,-0.980621,,,,,,,
1504281653.156771,-2.571913,1.342217,2.057247,0.000987,0.058617,0.000021,-0.122216,-0.973989,0.190809,-0.015433,-0.000910,-0.000669,1.890177,-46.270668,-0.903381,,,,,,,
1504281653.166780,-2.569807,1.342130,2.055781,-0.004344,0.061854,0.004277,-0.122664,-0.973970,0.190622,-0.013704,-0.000304,-0.003504,1.890177,-46.270668,-0.903381,,,,,,,
1504281653.176790,-2.567720,1.342125,2.054353,-0.005388,0.066124,0.006404,-0.123064,-0.973968,0.190370,-0.010145,-0.001877,-0.004991,1.890589,-46.345970,-0.752808,,,,,,,
1504281653.186800,-2.565633,1.342184,2.052939,-0.009683,0.066155,0.011734,-0.123430,-0.973982,0.190065,-0.006438,-0.003801,-0.005143,1.890589,-46.345970,-0.752808,,,,,,,
1504281653.196810,-2.563501,1.342286,2.051479,-0.012883,0.068310,0.014927,-0.123780,-0.974005,0.189718,-0.003966,-0.005426,-0.005330,2.040018,-46.120293,-0.754120,,,,,,,
