timestamp(unix),attitude_roll(radians),attitude_pitch(radians),attitude_yaw(radians),rotation_rate_x(radians/s),rotation_rate_y(radians/s),rotation_rate_z(radians/s),gravity_x(G),gravity_y(G),gravity_z(G),user_acc_x(G),user_acc_y(G),user_acc_z(G),magnetic_field_x(microteslas),magnetic_field_y(microteslas),magnetic_field_z(microteslas),latitude(degree),longitude(degree),altitude(meter),speed(m/s),course(degree),timestamp(unix),User Mark
1504281847.361505,-0.105475,0.317627,0.096953,-0.300042,0.036766,-0.117310,-0.100013,-0.312313,-0.944700,-0.121697,-0.443943,0.374632,-13.902472,-20.994120,-37.207428,,,,,,,
1504281847.371515,-0.104609,0.314157,0.095128,-0.383212,0.027886,-0.141989,-0.099308,-0.309015,-0.945858,-0.117520,-0.461767,0.356381,-13.977667,-20.919458,-37.208191,,,,,,,
1504281847.381524,-0.103781,0.310088,0.093111,-0.436564,0.021941,-0.150610,-0.098654,-0.305143,-0.947183,-0.111688,-0.474459,0.352014,-13.977667,-20.919458,-37.208191,,,,,,,
1504281847.391534,-0.102846,0.305656,0.091072,-0.466355,0.034969,-0.146415,-0.097906,-0.300919,-0.948611,-0.104853,-0.483581,0.350481,-13.903830,-20.543818,-37.360809,,,,,,,
1504281847.401544,-0.101674,0.301194,0.089070,-0.463976,0.066915,-0.144333,-0.096930,-0.296661,-0.950051,-0.106531,-0.492234,0.346032,-13.903830,-20.543818,-37.360809,,,,,,,
1504281847.411554,-0.100049,0.296905,0.087141,-0.435852,0.118891,-0.137971,-0.095512,-0.292562,-0.951465,-0.113198,-0.489421,0.344669,-13.830084,-20.317591,-37.812347,,,,,,,
1504281847.421563,-0.097961,0.293017,0.085399,-0.390687,0.171785,-0.124110,-0.093635,-0.288842,-0.952787,-0.111046,-0.472954,0.342786,-13.830084,-20.317591,-37.812347,,,,,,,
1504281847.431573,-0.095501,0.289626,0.083848,-0.339221,0.210776,-0.112348,-0.091384,-0.285594,-0.953984,-0.116380,-0.459493,0.344151,-13.530539,-20.091394,-37.738281,,,,,,,
1504281847.441553,-0.092804,0.286680,0.082464,-0.294275,0.234902,-0.100571,-0.088888,-0.282769,-0.955060,-0.118036,-0.452170,0.337446,-13.530539,-20.091394,-37.738281,,,,,,,
1504281847.451562,-0.090001,0.284129,0.081268,-0.253671,0.250539,-0.087720,-0.086276,-0.280321,-0.956021,-0.111127,-0.455030,0.325406,-13.531027,-19.941233,-37.814423,,,,,,,
1504281847.461572,-0.087225,0.281976,0.080258,-0.211069,0.249109,-0.074834,-0.083674,-0.278255,-0.956856,-0.105459,-0.467046,0.315483,-13.531027,-19.941233,-37.814423,,,,,,,
1504281847.471582,-0.084630,0.280301,0.079398,-0.162172,0.231648,-0.066180,-0.081230,-0.276645,-0.957533,-0.100472,-0.475644,0.309187,-13.156286,-19.789698,-37.739624,,,,,,,
1504281847.481585,-0.082081,0.279295,0.078776,-0.085408,0.237388,-0.045776,-0.078811,-0.275678,-0.958014,-0.098343,-0.478976,0.297888,-13.156286,-19.789698,-37.739624,,,,,,,
1504281847.491593,-0.079719,0.279153,0.078382,0.006211,0.224904,-0.038124,-0.076552,-0.275541,-0.958236,-0.090837,-0.473864,0.290603,-13.006170,-19.789179,-37.664276,,,,,,,
1504281847.501603,-0.077866,0.279768,0.078031,0.080437,0.166751,-0.038960,-0.074763,-0.276133,-0.958207,-0.103627,-0.468283,0.294419,-13.006170,-19.789179,-37.664276,,,,,,,
1504281847.511613,-0.076537,0.281153,0.077776,0.155723,0.111780,-0.033395,-0.073460,-0.277464,-0.957924,-0.096889,-0.444857,0.275642,-13.081884,-19.639063,-37.890594,,,,,,,
1504281847.521623,-0.075656,0.283350,0.077636,0.237591,0.078068,-0.029992,-0.072570,-0.279574,-0.957378,-0.094834,-0.440214,0.260585,-13.081884,-19.639063,-37.890594,,,,,,,
1504281847.531632,-0.075045,0.286363,0.077595,0.320597,0.053937,-0.025536,-0.071921,-0.282465,-0.956578,-0.097772,-0.444494,0.267384,-12.781027,-19.937876,-37.812592,,,,,,,
1504281847.541642,-0.074735,0.290061,0.077735,0.382191,0.027839,-0.009372,-0.071547,-0.286010,-0.955552,-0.089403,-0.451523,0.281266,-12.781027,-19.937876,-37.812592,,,,,,,
1504281847.551652,-0.074871,0.294092,0.078021,0.410601,-0.017158,-0.001772,-0.071590,-0.289871,-0.954384,-0.086979,-0.467361,0.290383,-13.005011,-20.164484,-37.511414,,,,,,,
1504281847.561662,-0.075496,0.298254,0.078381,0.418751,-0.061986,0.003659,-0.072094,-0.293852,-0.953128,-0.089588,-0.481356,0.289875,-13.005011,-20.164484,-37.511414,,,,,,,
1504281847.571671,-0.076375,0.302418,0.078824,0.414291,-0.080075,0.013289,-0.072838,-0.297829,-0.951836,-0.081123,-0.475791,0.297448,-12.854940,-20.238657,-37.585510,,,,,,,
1504281847.581681,-0.077598,0.306358,0.079434,0.386201,-0.111831,0.032510,-0.073911,-0.301588,-0.950569,-0.081088,-0.464602,0.317467,-12.854940,-20.238657,-37.585510,,,,,,,
1504281847.591691,-0.079206,0.309694,0.080180,0.320798,-0.141147,0.049527,-0.075359,-0.304767,-0.949441,-0.088215,-0.472287,0.330895,-13.004263,-20.464472,-37.509186,,,,,,,
1504281847.601701,-0.081025,0.312359,0.081118,0.254434,-0.153412,0.072916,-0.077020,-0.307305,-0.948489,-0.092811,-0.485435,0.327472,-13.004263,-20.464472,-37.509186,,,,,,,
1504281847.611712,-0.082774,0.314366,0.082308,0.192566,-0.131623,0.104793,-0.078628,-0.309214,-0.947737,-0.083131,-0.477148,0.340010,-13.003347,-20.689936,-37.282471,,,,,,,
1504281847.621721,-0.084230,0.315730,0.083832,0.132971,-0.088548,0.143040,-0.079972,-0.310510,-0.947200,-0.077346,-0.468588,0.358562,-13.003347,-20.689936,-37.282471,,,,,,,
1504281847.631731,-0.085453,0.316406,0.085701,0.064753,-0.057123,0.180225,-0.081113,-0.311153,-0.946892,-0.078891,-0.458897,0.374993,-13.227377,-20.991236,-37.130798,,,,,,,
1504281847.641741,-0.086553,0.316053,0.087866,-0.046229,-0.037065,0.216289,-0.082163,-0.310818,-0.946912,-0.080312,-0.454243,0.389203,-13.227377,-20.991236,-37.130798,,,,,,,
1504281847.651750,-0.087509,0.314726,0.090265,-0.133690,-0.015064,0.245986,-0.083104,-0.309556,-0.947243,-0.084804,-0.464599,0.378334,-13.077032,-20.991007,-36.905426,,,,,,,
1504281847.661759,-0.088082,0.312709,0.092889,-0.194184,0.039756,0.269268,-0.083702,-0.307637,-0.947815,-0.084343,-0.473567,0.354569,-13.077032,-20.991007,-36.905426,,,,,,,
1504281847.671769,-0.088165,0.310291,0.095545,-0.226901,0.085844,0.271265,-0.083846,-0.305335,-0.948546,-0.097581,-0.478234,0.371230,-13.378531,-20.616617,-37.283966,,,,,,,
1504281847.681779,-0.087768,0.307757,0.098030,-0.231858,0.121070,0.251981,-0.083537,-0.302922,-0.949347,-0.105092,-0.464366,0.382086,-13.378531,-20.616617,-37.283966,,,,,,,
1504281847.691789,-0.086942,0.305260,0.100208,-0.228239,0.154106,0.220974,-0.082818,-0.300541,-0.950166,-0.105460,-0.442699,0.381822,-13.379171,-20.541010,-37.584564,,,,,,,
1504281847.701798,-0.086069,0.302757,0.102037,-0.236782,0.131834,0.186842,-0.082053,-0.298153,-0.950985,-0.106866,-0.433353,0.375103,-13.379171,-20.541010,-37.584564,,,,,,,
1504281847.711808,-0.085597,0.300246,0.103491,-0.237041,0.077527,0.151713,-0.081668,-0.295756,-0.951766,-0.111997,-0.447576,0.351196,-13.380239,-20.165873,-37.662384,,,,,,,
1504281847.721818,-0.085532,0.298033,0.104630,-0.198849,0.030359,0.119840,-0.081662,-0.293640,-0.952422,-0.115528,-0.479629,0.305952,-13.380239,-20.165873,-37.662384,,,,,,,
1504281847.731828,-0.085450,0.296426,0.105505,-0.134603,0.040517,0.090046,-0.081624,-0.292104,-0.952897,-0.116145,-0.490260,0.296296,-13.680456,-19.942667,-37.439758,,,,,,,
1504281847.741838,-0.084820,0.295770,0.106157,-0.034750,0.100465,0.060226,-0.081039,-0.291476,-0.953139,-0.119492,-0.476773,0.312468,-13.680456,-19.942667,-37.439758,,,,,,,
1504281847.751848,-0.083325,0.296166,0.106561,0.066322,0.177456,0.027176,-0.079605,-0.291855,-0.953144,-0.126755,-0.455368,0.333515,-13.530416,-20.091532,-37.663300,,,,,,,
1504281847.761858,-0.081359,0.297490,0.106748,0.154168,0.205531,0.000594,-0.077699,-0.293121,-0.952913,-0.133086,-0.433609,0.353258,-13.530416,-20.091532,-37.663300,,,,,,,
1504281847.771868,-0.079170,0.299595,0.106703,0.225908,0.218824,-0.029193,-0.075564,-0.295133,-0.952463,-0.141416,-0.428912,0.341715,-13.305426,-20.090525,-37.662750,,,,,,,
1504281847.781878,-0.077053,0.302237,0.106490,0.268511,0.198246,-0.047228,-0.073487,-0.297656,-0.951840,-0.140288,-0.432004,0.327848,-13.305426,-20.090525,-37.662750,,,,,,,
1504281847.791886,-0.075118,0.305095,0.106081,0.286536,0.173606,-0.064232,-0.071582,-0.300384,-0.951129,-0.135739,-0.429261,0.317370,-13.230276,-20.239893,-37.811432,,,,,,,
1504281847.801896,-0.073333,0.308176,0.105444,0.308946,0.157465,-0.090850,-0.069816,-0.303321,-0.950327,-0.134820,-0.434731,0.289134,-13.230276,-20.239893,-37.811432,,,,,,,
1504281847.811906,-0.071484,0.311536,0.104490,0.335757,0.154082,-0.123887,-0.067985,-0.306521,-0.949433,-0.132287,-0.434309,0.281464,-13.003119,-20.914484,-37.505798,,,,,,,
1504281847.821916,-0.069463,0.315257,0.103173,0.372288,0.163409,-0.160132,-0.065986,-0.310061,-0.948424,-0.127953,-0.417356,0.298751,-13.003119,-20.914484,-37.505798,,,,,,,
1504281847.831925,-0.067058,0.319342,0.101455,0.402632,0.196236,-0.201766,-0.063620,-0.313942,-0.947308,-0.132257,-0.409249,0.304394,-13.003164,-20.764933,-37.281921,,,,,,,
1504281847.841935,-0.064136,0.323700,0.099212,0.422369,0.230227,-0.254094,-0.060763,-0.318077,-0.946116,-0.139737,-0.414482,0.320231,-13.003164,-20.764933,-37.281921,,,,,,,
1504281847.851914,-0.060912,0.327939,0.096395,0.395914,0.226235,-0.304301,-0.057631,-0.322092,-0.944952,-0.140200,-0.415884,0.330542,-12.552038,-21.212900,-37.277435,,,,,,,
1504281847.861924,-0.058044,0.331705,0.093125,0.342247,0.164908,-0.338443,-0.054849,-0.325655,-0.943896,-0.136771,-0.419614,0.326297,-12.552038,-21.212900,-37.277435,,,,,,,
1504281847.871934,-0.055921,0.334876,0.089608,0.282897,0.072704,-0.352259,-0.052788,-0.328652,-0.942975,-0.137001,-0.434150,0.306912,-12.175680,-21.661524,-37.123138,,,,,,,
1504281847.881944,-0.054650,0.337534,0.086046,0.235278,-0.008960,-0.347928,-0.051541,-0.331162,-0.942165,-0.127811,-0.440735,0.307568,-12.175680,-21.661524,-37.123138,,,,,,,
1504281847.891953,-0.053976,0.339773,0.082677,0.198550,-0.050241,-0.323369,-0.050865,-0.333273,-0.941457,-0.112099,-0.451197,0.320058,-11.950155,-21.735956,-36.897003,,,,,,,
1504281847.901963,-0.053320,0.341733,0.079565,0.174035,-0.029821,-0.295695,-0.050213,-0.335120,-0.940836,-0.100132,-0.468102,0.340250,-11.950155,-21.735956,-36.897003,,,,,,,
1504281847.911973,-0.052343,0.343428,0.076819,0.149684,0.018290,-0.256328,-0.049264,-0.336717,-0.940316,-0.090415,-0.481032,0.365472,-11.874212,-22.110620,-36.894012,,,,,,,
1504281847.921983,-0.051058,0.344860,0.074521,0.123129,0.061087,-0.211618,-0.048031,-0.338065,-0.939896,-0.084080,-0.489542,0.384995,-11.874212,-22.110620,-36.894012,,,,,,,
1504281847.931993,-0.049633,0.345769,0.072678,0.064385,0.081769,-0.165858,-0.046677,-0.338920,-0.939656,-0.085663,-0.495949,0.390416,-11.874212,-22.110620,-36.894012,,,,,,,
1504281847.942003,-0.048431,0.345966,0.071336,-0.003160,0.072682,-0.114724,-0.045543,-0.339105,-0.939645,-0.083516,-0.494024,0.382562,-11.949148,-22.185816,-36.968628,,,,,,,
1504281847.952013,-0.047319,0.345397,0.070420,-0.077957,0.083912,-0.074312,-0.044508,-0.338570,-0.939888,-0.080706,-0.485541,0.366813,-11.949148,-22.185816,-36.968628,,,,,,,
1504281847.962023,-0.046119,0.344295,0.069834,-0.121680,0.106617,-0.042406,-0.043397,-0.337533,-0.940313,-0.080642,-0.470084,0.361471,-11.724447,-22.109644,-37.043640,,,,,,,
1504281847.972033,-0.044831,0.342906,0.069548,-0.144108,0.121690,-0.013651,-0.042207,-0.336225,-0.940835,-0.075102,-0.448702,0.365579,-11.724447,-22.109644,-37.043640,,,,,,,
1504281847.982041,-0.043585,0.341291,0.069531,-0.166640,0.121849,0.011927,-0.041058,-0.334704,-0.941428,-0.079379,-0.449994,0.369056,-11.799902,-22.109385,-37.343811,,,,,,,
1504281847.992051,-0.042654,0.339462,0.069728,-0.187254,0.091096,0.031159,-0.040208,-0.332980,-0.942076,-0.086059,-0.465742,0.359297,-11.799902,-22.109385,-37.343811,,,,,,,
1504281848.002061,-0.042183,0.337492,0.070140,-0.197283,0.051729,0.053626,-0.039791,-0.331121,-0.942749,-0.089023,-0.483194,0.336136,-11.876257,-21.435175,-37.124084,,,,,,,
1504281848.012071,-0.042159,0.335452,0.070732,-0.200873,0.012315,0.068633,-0.039797,-0.329196,-0.943423,-0.090559,-0.490186,0.320437,-11.876257,-21.435175,-37.124084,,,,,,,
1504281848.022080,-0.042445,0.333487,0.071474,-0.187410,-0.008017,0.080409,-0.040095,-0.327340,-0.944056,-0.091802,-0.484931,0.320856,-11.875906,-21.659876,-37.272400,,,,,,,
1504281848.032090,-0.042868,0.331704,0.072308,-0.171521,-0.017746,0.087926,-0.040519,-0.325654,-0.944620,-0.089593,-0.470351,0.317408,-11.875906,-21.659876,-37.272400,,,,,,,
1504281848.042100,-0.043302,0.330196,0.073188,-0.135197,-0.011651,0.087978,-0.040950,-0.324228,-0.945092,-0.090291,-0.463766,0.321237,-11.577230,-21.133524,-37.275574,,,,,,,
1504281848.052110,-0.043540,0.329248,0.073998,-0.073081,0.010227,0.076306,-0.041188,-0.323331,-0.945389,-0.089580,-0.462130,0.314774,-11.577230,-21.133524,-37.275574,,,,,,,
1504281848.062119,-0.042895,0.329060,0.074565,-0.000643,0.110893,0.046366,-0.040581,-0.323154,-0.945476,-0.096031,-0.453564,0.324672,-11.501440,-21.582743,-37.497040,,,,,,,
1504281848.072129,-0.041662,0.329128,0.074776,0.003948,0.130072,0.012184,-0.039414,-0.323218,-0.945503,-0.106613,-0.441064,0.363274,-11.501440,-21.582743,-37.497040,,,,,,,
1504281848.082139,-0.040466,0.328816,0.074620,-0.045167,0.104937,-0.020947,-0.038288,-0.322923,-0.945651,-0.106091,-0.460494,0.414584,-11.652868,-21.058268,-37.576355,,,,,,,
1504281848.092149,-0.039865,0.328064,0.074118,-0.083009,0.023229,-0.051823,-0.037729,-0.322211,-0.945916,-0.091193,-0.508890,0.310815,-11.652868,-21.058268,-37.576355,,,,,,,
1504281848.102160,-0.039648,0.327410,0.073352,-0.063913,-0.005674,-0.076289,-0.037532,-0.321591,-0.946134,-0.091390,-0.509509,0.311033,-11.426931,-21.432261,-37.572998,,,,,,,
1504281848.112169,-0.039109,0.327162,0.072371,-0.011203,0.035472,-0.096551,-0.037025,-0.321357,-0.946234,-0.080101,-0.476464,0.339545,-11.426931,-21.432261,-37.572998,,,,,,,
1504281848.122179,-0.037979,0.327392,0.071280,0.028788,0.093760,-0.106191,-0.035953,-0.321575,-0.946201,-0.081173,-0.476246,0.339512,-11.501333,-21.582895,-37.422028,,,,,,,
1504281848.132189,-0.036427,0.327781,0.070166,0.035422,0.123541,-0.105164,-0.034480,-0.321943,-0.946131,-0.076757,-0.458651,0.371607,-11.501333,-21.582895,-37.422028,,,,,,,
1504281848.142198,-0.034845,0.328086,0.069110,0.019365,0.121535,-0.097717,-0.032979,-0.322231,-0.946086,-0.076716,-0.456211,0.367183,-11.502234,-21.357447,-37.648743,,,,,,,
1504281848.152207,-0.033420,0.328142,0.068039,-0.004221,0.104684,-0.101998,-0.031631,-0.322285,-0.946114,-0.086029,-0.458324,0.356362,-11.502234,-21.357447,-37.648743,,,,,,,
1504281848.162217,-0.032127,0.327734,0.066906,-0.057660,0.089147,-0.108467,-0.030412,-0.321898,-0.946286,-0.097289,-0.456468,0.344067,-11.202581,-21.131388,-37.499664,,,,,,,
1504281848.172227,-0.030896,0.326958,0.065676,-0.090761,0.081967,-0.114916,-0.029255,-0.321164,-0.946572,-0.099423,-0.449176,0.331505,-11.202581,-21.131388,-37.499664,,,,,,,
1504281848.182237,-0.029597,0.325656,0.064312,-0.147193,0.087774,-0.128901,-0.028038,-0.319931,-0.947026,-0.102501,-0.448105,0.325352,-10.827093,-21.279856,-37.422607,,,,,,,
1504281848.192246,-0.028245,0.324010,0.062832,-0.174902,0.086945,-0.136419,-0.026771,-0.318370,-0.947588,-0.104149,-0.451466,0.323962,-10.827093,-21.279856,-37.422607,,,,,,,
1504281848.202256,-0.026967,0.322101,0.061302,-0.199499,0.076497,-0.141780,-0.025577,-0.316560,-0.948228,-0.100705,-0.454039,0.323579,-11.053778,-20.830118,-37.801575,,,,,,,
1504281848.212266,-0.025735,0.319999,0.059725,-0.220837,0.074545,-0.145016,-0.024426,-0.314565,-0.948922,-0.104862,-0.458781,0.327675,-11.053778,-20.830118,-37.801575,,,,,,,
1504281848.222276,-0.024509,0.317734,0.058164,-0.231505,0.076761,-0.141836,-0.023280,-0.312415,-0.949660,-0.101811,-0.459146,0.324783,-11.052984,-21.055414,-37.649872,,,,,,,
1504281848.232285,-0.023172,0.315403,0.056645,-0.239945,0.090680,-0.138673,-0.022027,-0.310200,-0.950416,-0.100089,-0.465938,0.324958,-11.052984,-21.055414,-37.649872,,,,,,,
1504281848.242296,-0.021745,0.312965,0.055105,-0.250538,0.098230,-0.141907,-0.020687,-0.307881,-0.951200,-0.100208,-0.474757,0.335599,-10.678976,-20.753428,-37.801208,,,,,,,
1504281848.252306,-0.020237,0.310242,0.053591,-0.283569,0.107021,-0.136643,-0.019270,-0.305290,-0.952065,-0.094027,-0.476357,0.343330,-10.678976,-20.753428,-37.801208,,,,,,,
1504281848.262316,-0.018586,0.307174,0.052199,-0.316521,0.129658,-0.124998,-0.017715,-0.302366,-0.953027,-0.093292,-0.483644,0.348947,-10.604345,-20.603098,-37.802155,,,,,,,
1504281848.272295,-0.016552,0.303876,0.050887,-0.335382,0.176693,-0.118709,-0.015793,-0.299220,-0.954053,-0.106079,-0.488652,0.351163,-10.604345,-20.603098,-37.802155,,,,,,,
1504281848.282305,-0.013866,0.300660,0.049556,-0.314557,0.242594,-0.124127,-0.013243,-0.296150,-0.955049,-0.109605,-0.479149,0.363924,-10.380148,-20.376780,-37.953278,,,,,,,
1504281848.292315,-0.010554,0.297731,0.048073,-0.284140,0.297776,-0.144452,-0.010090,-0.293351,-0.955951,-0.107891,-0.464583,0.377506,-10.380148,-20.376780,-37.953278,,,,,,,
1504281848.302323,-0.014373,0.328089,0.048519,-0.232453,0.293068,-0.179585,-0.013606,-0.322234,-0.946562,-0.110265,-0.431016,0.368788,-10.155935,-20.150476,-38.104401,,,,,,,
1504281848.312333,-0.018615,0.358446,0.048818,-0.203586,0.236333,-0.215733,-0.017431,-0.350820,-0.936281,-0.107295,-0.412761,0.340852,-10.155935,-20.150476,-38.104401,,,,,,,
1504281848.322343,-0.023231,0.386932,0.048910,-0.173936,0.154008,-0.240091,-0.021511,-0.377349,-0.925821,-0.102756,-0.395814,0.292475,-9.931646,-19.999002,-38.329987,,,,,,,
1504281848.332353,-0.027890,0.411315,0.048723,-0.146242,0.098345,-0.266632,-0.025560,-0.399815,-0.916239,-0.102018,-0.364864,0.258402,-9.931646,-19.999002,-38.329987,,,,,,,
1504281848.342362,-0.025782,0.410123,0.045492,-0.118476,0.078973,-0.302841,-0.023642,-0.398722,-0.916767,-0.104288,-0.338430,0.261005,-9.631735,-19.922815,-38.254822,,,,,,,
1504281848.352372,-0.023410,0.409320,0.041862,-0.077573,0.099988,-0.341234,-0.021474,-0.397986,-0.917140,-0.095393,-0.312616,0.261638,-9.631735,-19.922815,-38.254822,,,,,,,
1504281848.362382,-0.020543,0.409056,0.037807,-0.019504,0.133648,-0.378551,-0.018847,-0.397744,-0.917303,-0.087782,-0.299171,0.270468,-9.406469,-20.071650,-38.328125,,,,,,,
1504281848.372392,-0.017373,0.409334,0.033421,0.032987,0.140707,-0.409428,-0.015937,-0.397999,-0.917248,-0.089974,-0.303875,0.284664,-9.406469,-20.071650,-38.328125,,,,,,,
1504281848.382401,-0.014411,0.409907,0.028766,0.054080,0.094738,-0.433860,-0.013216,-0.398524,-0.917063,-0.097562,-0.324209,0.285212,-9.106695,-20.070002,-38.477386,,,,,,,
1504281848.392411,-0.012075,0.410445,0.023830,0.043998,0.018125,-0.460428,-0.011071,-0.399018,-0.916876,-0.088111,-0.363769,0.236716,-9.106695,-20.070002,-38.477386,,,,,,,
1504281848.402421,-0.010329,0.410696,0.018580,0.010498,-0.052964,-0.489180,-0.009470,-0.399248,-0.916794,-0.089712,-0.363539,0.236634,-8.807150,-20.068064,-38.776642,,,,,,,
1504281848.412431,-0.008955,0.410737,0.013014,-0.008883,-0.092203,-0.516897,-0.008210,-0.399285,-0.916790,-0.081145,-0.358451,0.231091,-8.807150,-20.068064,-38.776642,,,,,,,
1504281848.422441,-0.007556,0.410447,0.007176,-0.038634,-0.090869,-0.539366,-0.006928,-0.399019,-0.916916,-0.075377,-0.339918,0.241227,-8.430639,-20.666376,-38.771240,,,,,,,
1504281848.432451,-0.005894,0.409902,0.001134,-0.065045,-0.069320,-0.557596,-0.005406,-0.398520,-0.917144,-0.073665,-0.326090,0.263259,-8.430639,-20.666376,-38.771240,,,,,,,
1504281848.442461,-0.004092,0.409163,-0.005117,-0.079885,-0.069178,-0.576835,-0.003755,-0.397842,-0.917446,-0.076583,-0.324265,0.281948,-8.656240,-20.292826,-38.549591,,,,,,,
1504281848.452471,-0.002206,0.408207,-0.011482,-0.106480,-0.064688,-0.585428,-0.002025,-0.396964,-0.917832,-0.074163,-0.330194,0.286133,-8.656240,-20.292826,-38.549591,,,,,,,
1504281848.462481,-0.000147,0.406947,-0.017994,-0.135064,-0.047385,-0.602587,-0.000135,-0.395807,-0.918334,-0.076815,-0.344763,0.292800,-8.506247,-20.292154,-38.549225,,,,,,,
1504281848.472489,0.002200,0.405292,-0.024697,-0.175379,-0.026793,-0.615502,0.002022,-0.394287,-0.918985,-0.084160,-0.355759,0.290460,-8.506247,-20.292154,-38.549225,,,,,,,
1504281848.482483,0.004564,0.403233,-0.031274,-0.211687,-0.022246,-0.601697,0.004198,-0.392394,-0.919788,-0.078950,-0.349030,0.286609,-7.831335,-20.214273,-38.473114,,,,,,,
1504281848.492493,0.006383,0.401009,-0.037566,-0.219809,-0.084017,-0.569580,0.005876,-0.390347,-0.920649,-0.072634,-0.389789,0.273814,-7.831335,-20.214273,-38.473114,,,,,,,
1504281848.502503,0.007116,0.398910,-0.043146,-0.198417,-0.164191,-0.494683,0.006557,-0.388415,-0.921461,-0.045971,-0.434736,0.262480,-7.756735,-20.138636,-38.623505,,,,,,,
1504281848.512512,0.006616,0.397346,-0.047634,-0.137699,-0.242592,-0.386632,0.006101,-0.386973,-0.922071,-0.015180,-0.453954,0.244703,-7.756735,-20.138636,-38.623505,,,,,,,
1504281848.522522,0.005110,0.396461,-0.051012,-0.073534,-0.295438,-0.287159,0.004714,-0.386156,-0.922421,-0.005355,-0.465315,0.245877,-7.607794,-19.762812,-38.700928,,,,,,,
1504281848.532532,0.002647,0.396045,-0.053446,-0.027454,-0.352380,-0.204789,0.002442,-0.385773,-0.922591,0.008849,-0.451095,0.249419,-7.607794,-19.762812,-38.700928,,,,,,,
1504281848.542542,-0.000539,0.396079,-0.055001,0.012441,-0.383694,-0.124609,-0.000497,-0.385804,-0.922581,0.021783,-0.407196,0.238514,-7.682714,-19.837992,-38.775574,,,,,,,
1504281848.552551,-0.004069,0.396352,-0.055767,0.031366,-0.375397,-0.055210,-0.003754,-0.386055,-0.922468,0.019577,-0.350334,0.242094,-7.682714,-19.837992,-38.775574,,,,,,,
1504281848.562561,-0.007329,0.396764,-0.055953,0.043354,-0.312678,-0.005132,-0.006759,-0.386436,-0.922292,0.002395,-0.328698,0.251591,-8.207861,-19.690653,-38.627991,,,,,,,
1504281848.572571,-0.009873,0.397349,-0.055651,0.065223,-0.219130,0.038504,-0.009103,-0.386975,-0.922045,-0.004294,-0.334460,0.259783,-8.207861,-19.690653,-38.627991,,,,,,,
1504281848.582581,-0.011709,0.398073,-0.054936,0.075285,-0.140394,0.072540,-0.010793,-0.387643,-0.921746,-0.006327,-0.358161,0.277978,-8.282980,-19.690851,-38.703156,,,,,,,
1504281848.592591,-0.013317,0.398795,-0.053959,0.071069,-0.121200,0.092779,-0.012272,-0.388308,-0.921448,-0.014538,-0.395414,0.300247,-8.282980,-19.690851,-38.703156,,,,,,,
1504281848.602600,-0.015080,0.399329,-0.052815,0.048427,-0.140212,0.109852,-0.013893,-0.388801,-0.921217,-0.009590,-0.401452,0.289747,-8.658499,-19.617075,-38.929657,,,,,,,
1504281848.612610,-0.017260,0.399657,-0.051419,0.027824,-0.165643,0.135479,-0.015899,-0.389102,-0.921057,-0.003708,-0.382092,0.275855,-8.658499,-19.617075,-38.929657,,,,,,,
1504281848.622620,-0.019340,0.399593,-0.049752,-0.014704,-0.132283,0.158829,-0.017815,-0.389044,-0.921047,-0.005180,-0.379343,0.270397,-8.807150,-20.068064,-38.776642,,,,,,,
1504281848.632630,-0.020818,0.399000,-0.047948,-0.070704,-0.057241,0.169274,-0.019181,-0.388497,-0.921250,-0.009414,-0.388862,0.285752,-8.807150,-20.068064,-38.776642,,,,,,,
1504281848.642639,-0.021376,0.397760,-0.046106,-0.136082,0.041330,0.172189,-0.019706,-0.387354,-0.921720,-0.007821,-0.376348,0.303694,-8.732489,-19.843012,-38.628174,,,,,,,
1504281848.652649,-0.020741,0.395861,-0.044463,-0.203338,0.153798,0.146257,-0.019135,-0.385603,-0.922467,-0.016174,-0.351336,0.320980,-8.732489,-19.843012,-38.628174,,,,,,,
1504281848.662659,-0.019113,0.393207,-0.043347,-0.282563,0.220573,0.093699,-0.017653,-0.383153,-0.923516,-0.031587,-0.335811,0.344811,-8.732565,-19.992426,-38.927032,,,,,,,
1504281848.672669,-0.016915,0.389770,-0.042834,-0.363177,0.245802,0.039077,-0.015645,-0.379976,-0.924864,-0.032115,-0.339369,0.350554,-8.732565,-19.992426,-38.927032,,,,,,,
1504281848.682648,-0.014424,0.385637,-0.042932,-0.428022,0.241066,-0.016532,-0.013364,-0.376149,-0.926463,-0.042697,-0.375636,0.333476,-8.808050,-19.842615,-39.003357,,,,,,,
1504281848.692658,-0.011958,0.380848,-0.043577,-0.497344,0.213983,-0.065705,-0.011101,-0.371708,-0.928283,-0.055397,-0.401546,0.323822,-8.808050,-19.842615,-39.003357,,,,,,,
1504281848.702667,-0.009751,0.375554,-0.044656,-0.542307,0.171768,-0.103067,-0.009071,-0.366788,-0.930260,-0.052712,-0.400317,0.307152,-8.359442,-19.240732,-38.931732,,,,,,,
1504281848.712677,-0.007766,0.369886,-0.045995,-0.572255,0.148595,-0.125494,-0.007241,-0.361509,-0.932341,-0.050270,-0.389742,0.280348,-8.359442,-19.240732,-38.931732,,,,,,,
1504281848.722687,-0.005225,0.364238,-0.047639,-0.556585,0.220959,-0.156549,-0.004883,-0.356237,-0.934383,-0.050873,-0.371943,0.260127,-8.210913,-18.789606,-39.159760,,,,,,,
1504281848.732697,-0.001457,0.359231,-0.049521,-0.479732,0.343960,-0.180115,-0.001364,-0.351555,-0.936166,-0.049341,-0.358040,0.267709,-8.210913,-18.789606,-39.159760,,,,,,,
1504281848.742706,0.003870,0.355036,-0.051630,-0.400515,0.495712,-0.203729,0.003628,-0.347624,-0.937627,-0.050274,-0.352999,0.299642,-8.212957,-18.114161,-39.389862,,,,,,,
1504281848.752716,0.010426,0.351627,-0.054006,-0.316372,0.593085,-0.232574,0.009788,-0.344426,-0.938762,-0.060096,-0.350642,0.307873,-8.212957,-18.114161,-39.389862,,,,,,,
1504281848.762726,0.017428,0.349149,-0.056617,-0.227571,0.610491,-0.253799,0.016376,-0.342099,-0.939521,-0.064106,-0.352756,0.289939,-7.838064,-18.112329,-39.463898,,,,,,,
1504281848.772736,0.024121,0.347240,-0.059492,-0.169227,0.550366,-0.282412,0.022679,-0.340304,-0.940042,-0.068624,-0.357603,0.265542,-7.838064,-18.112329,-39.463898,,,,,,,
1504281848.782746,0.029491,0.345708,-0.062639,-0.137488,0.370040,-0.303387,0.027742,-0.338863,-0.940427,-0.072054,-0.359791,0.230862,-7.389532,-17.659845,-39.691193,,,,,,,
1504281848.792755,0.032882,0.344425,-0.065788,-0.108953,0.204634,-0.299844,0.030945,-0.337656,-0.940761,-0.062592,-0.364294,0.180339,-7.389532,-17.659845,-39.691193,,,,,,,
1504281848.802765,0.035031,0.343785,-0.068821,-0.033161,0.086776,-0.282426,0.032975,-0.337053,-0.940908,-0.055069,-0.388442,0.121633,-7.014013,-17.957865,-39.838013,,,,,,,
1504281848.812775,0.036513,0.343883,-0.071634,0.033622,0.047839,-0.257691,0.034368,-0.337145,-0.940825,-0.065389,-0.400159,0.150710,-7.014013,-17.957865,-39.838013,,,,,,,
1504281848.822785,0.037561,0.344522,-0.074059,0.083271,0.014348,-0.211648,0.035346,-0.337747,-0.940573,-0.074774,-0.394950,0.172125,-6.564138,-17.955698,-39.911896,,,,,,,
1504281848.832794,0.037924,0.345506,-0.075850,0.112389,-0.040304,-0.147457,0.035674,-0.338672,-0.940228,-0.065612,-0.385128,0.165600,-6.564138,-17.955698,-39.911896,,,,,,,
1504281848.842804,0.037181,0.346874,-0.076916,0.149703,-0.133391,-0.076780,0.034958,-0.339959,-0.939790,-0.069535,-0.375266,0.161455,-6.639502,-17.806025,-39.913208,,,,,,,
1504281848.852814,0.035223,0.348691,-0.077211,0.193363,-0.230798,-0.001814,0.033097,-0.341668,-0.939238,-0.066315,-0.360267,0.165404,-6.338537,-18.104975,-39.760223,,,,,,,
1504281848.862824,0.032168,0.350910,-0.076802,0.229772,-0.308951,0.060296,0.030202,-0.343753,-0.938574,-0.063360,-0.354505,0.171103,-6.338537,-18.104975,-39.760223,,,,,,,
1504281848.872833,0.028312,0.353413,-0.075891,0.250433,-0.367773,0.102064,0.026559,-0.346102,-0.937821,-0.064172,-0.358228,0.167374,-6.338537,-18.104975,-39.760223,,,,,,,
1504281848.882843,0.023663,0.356068,-0.074657,0.265711,-0.442517,0.127840,0.022177,-0.348592,-0.937012,-0.057440,-0.358592,0.158967,-6.712469,-18.481821,-39.683319,,,,,,,
1504281848.892853,0.018138,0.358821,-0.073186,0.273567,-0.516127,0.146130,0.016982,-0.351170,-0.936158,-0.048964,-0.348003,0.146973,-6.712469,-18.481821,-39.683319,,,,,,,
1504281848.902863,0.012154,0.361652,-0.071743,0.285069,-0.553505,0.133407,0.011367,-0.353820,-0.935245,-0.050079,-0.335847,0.146960,-6.787100,-18.632151,-39.682373,,,,,,,
1504281848.912873,0.006346,0.364656,-0.070629,0.304629,-0.532315,0.096044,0.005929,-0.356628,-0.934228,-0.053414,-0.334351,0.167107,-6.787100,-18.632151,-39.682373,,,,,,,
1504281848.922882,0.001272,0.367980,-0.069957,0.340602,-0.463303,0.053289,0.001187,-0.359731,-0.933055,-0.043377,-0.336787,0.188686,-7.237173,-18.559320,-39.609039,,,,,,,
1504281848.932892,-0.002638,0.371375,-0.069767,0.339572,-0.354554,0.006129,-0.002458,-0.362897,-0.931826,-0.044157,-0.349658,0.222338,-7.237173,-18.559320,-39.609039,,,,,,,
1504281848.942902,-0.005271,0.374719,-0.070010,0.326764,-0.245718,-0.032511,-0.004905,-0.366011,-0.930598,-0.051247,-0.361009,0.254130,-7.835623,-19.087320,-39.456573,,,,,,,
1504281848.952912,-0.006761,0.377509,-0.070648,0.261563,-0.150303,-0.070152,-0.006285,-0.368606,-0.929565,-0.051638,-0.355256,0.267867,-7.835623,-19.087320,-39.456573,,,,,,,
1504281848.962921,-0.007384,0.379595,-0.071764,0.187591,-0.091036,-0.118417,-0.006858,-0.370544,-0.928789,-0.049233,-0.337464,0.276507,-8.435431,-18.940775,-39.084167,,,,,,,
1504281848.972931,-0.007379,0.380912,-0.073514,0.113493,-0.056262,-0.180516,-0.006850,-0.371767,-0.928301,-0.046525,-0.320127,0.285982,-8.435431,-18.940775,-39.084167,,,,,,,
1504281848.982941,-0.006562,0.381703,-0.076153,0.067427,-0.001445,-0.269287,-0.006089,-0.372502,-0.928012,-0.036422,-0.310406,0.289843,-8.134939,-19.313822,-39.380646,,,,,,,
1504281848.992951,-0.004504,0.382332,-0.079976,0.061254,0.089301,-0.383670,-0.004179,-0.373086,-0.927788,-0.033159,-0.319602,0.309593,-8.134939,-19.313822,-39.380646,,,,,,,
1504281849.002960,-0.000908,0.383092,-0.084972,0.075481,0.202246,-0.488450,-0.000842,-0.373790,-0.927513,-0.020734,-0.342275,0.333839,-8.508963,-19.615808,-39.229309,,,,,,,
1504281849.012970,0.004263,0.383795,-0.090885,0.055568,0.334622,-0.562369,0.003953,-0.374442,-0.927242,-0.017793,-0.378029,0.350780,-7.684195,-19.387552,-39.003967,,,,,,,
1504281849.022980,0.010808,0.381631,-0.096740,-0.271595,0.430035,-0.532164,0.010030,-0.372435,-0.928004,-0.021489,-0.394289,0.359935,-7.684195,-19.387552,-39.003967,,,,,,,
1504281849.032990,0.017206,0.377044,-0.102051,-0.519052,0.462936,-0.494225,0.015996,-0.368174,-0.929619,0.011561,-0.355932,0.429894,-7.684195,-19.387552,-39.003967,,,,,,,
1504281849.042999,0.024817,0.370559,-0.107275,-0.667301,0.598430,-0.502192,0.023131,-0.362136,-0.931838,0.043093,-0.349823,0.498427,-7.233969,-19.610071,-39.226166,,,,,,,
1504281849.053009,0.033456,0.363026,-0.112520,-0.760323,0.700440,-0.513207,0.031270,-0.355105,-0.934303,0.034678,-0.416227,0.457420,-7.233969,-19.610071,-39.226166,,,,,,,
1504281849.063019,0.043077,0.355121,-0.117063,-0.752256,0.837732,-0.413100,0.040377,-0.347704,-0.936735,0.043867,-0.431486,0.461683,-6.785437,-19.157602,-39.453430,,,,,,,
1504281849.073029,0.052475,0.352838,-0.117246,-0.002253,0.886428,0.104737,0.049220,-0.345562,-0.937104,0.050939,-0.397953,0.428208,-6.785437,-19.157602,-39.453430,,,,,,,
1504281849.083039,0.056695,0.353286,-0.112817,-0.042152,0.550674,0.507670,0.053165,-0.345983,-0.936733,0.167172,-0.160517,0.350567,-5.962484,-18.478449,-39.681488,,,,,,,
1504281849.093018,0.060557,0.352327,-0.107159,-0.093289,0.552174,0.494770,0.056802,-0.345082,-0.936852,0.196616,-0.038966,-0.053642,-5.962484,-18.478449,-39.681488,,,,,,,
1504281849.103028,0.063143,0.353789,-0.102960,0.195369,0.413531,0.369562,0.059193,-0.346454,-0.936197,0.017360,-0.731762,0.104258,-5.437445,-18.625635,-39.904053,,,,,,,
1504281849.113037,0.069134,0.357969,-0.100787,0.468015,0.766329,0.177280,0.064700,-0.350373,-0.934373,0.031110,-0.610000,0.194261,-5.437445,-18.625635,-39.904053,,,,,,,
1504281849.123047,0.079058,0.364355,-0.101180,0.673753,1.007819,-0.041607,0.073791,-0.356346,-0.931436,-0.121048,-0.418602,0.242867,-5.136923,-18.923990,-40.051056,,,,,,,
1504281849.133057,0.090279,0.371132,-0.104334,0.706321,1.042996,-0.311666,0.084019,-0.362670,-0.928122,-0.152668,-0.211258,0.447394,-5.136923,-18.923990,-40.051056,,,,,,,
1504281849.143067,0.105641,0.380307,-0.111209,1.149988,1.358283,-0.626336,0.097911,-0.371206,-0.923374,-0.152781,-0.112666,0.271732,-4.460989,-19.071711,-39.673279,,,,,,,
1504281849.153076,0.122779,0.393491,-0.121847,1.277994,1.227439,-0.830825,0.113111,-0.383415,-0.916624,-0.207822,-0.160729,0.186842,-4.460989,-19.071711,-39.673279,,,,,,,
1504281849.163086,0.133796,0.396715,-0.128521,0.177034,0.782216,-0.498918,0.123037,-0.386391,-0.914092,-0.280736,-0.338722,0.098800,-3.408438,-19.817881,-39.215027,,,,,,,
1504281849.173096,0.140950,0.395210,-0.135661,-0.130603,0.298058,-0.775055,0.129655,-0.385002,-0.913763,-0.143128,-0.848015,0.082174,-2.506781,-20.339289,-38.983887,,,,,,,
1504281849.183106,0.143675,0.389178,-0.146256,-0.583566,-0.268994,-1.139891,0.132474,-0.379428,-0.915688,0.062839,-1.052075,0.389092,-2.506781,-20.339289,-38.983887,,,,,,,
1504281849.193115,0.142763,0.377809,-0.158820,-1.048617,-0.667712,-1.378025,0.132245,-0.368885,-0.920019,-0.071072,-0.703732,0.219519,-1.683249,-19.885126,-39.210236,,,,,,,
1504281849.203125,0.138943,0.363682,-0.173580,-1.244120,-0.979145,-1.612643,0.129437,-0.355718,-0.925587,-0.146482,-0.589610,0.219395,-1.683249,-19.885126,-39.210236,,,,,,,
1504281849.213135,0.134516,0.348050,-0.190617,-1.362767,-1.031183,-1.866799,0.126070,-0.341065,-0.931548,-0.161318,-0.538009,0.261534,-1.986227,-19.060282,-39.817169,,,,,,,
1504281849.223145,0.131329,0.329883,-0.210793,-1.601945,-0.986257,-2.186445,0.123891,-0.323933,-0.937933,-0.058080,-0.494717,0.323279,-1.986227,-19.060282,-39.817169,,,,,,,
1504281849.233154,0.127168,0.312305,-0.232953,-1.392537,-1.178566,-2.338382,0.120690,-0.307253,-0.943944,0.009955,-0.487943,0.293370,-1.766012,-17.557917,-40.502869,,,,,,,
1504281849.243164,0.120635,0.300224,-0.256722,-0.761219,-1.402128,-2.420151,0.114959,-0.295734,-0.948328,0.105057,-0.602963,0.144144,-1.766012,-17.557917,-40.502869,,,,,,,
1504281849.253174,0.114872,0.294575,-0.282949,-0.110749,-1.298598,-2.609204,0.109682,-0.290333,-0.950619,0.115660,-0.575741,0.421734,-1.843908,-16.582651,-40.810364,,,,,,,
1504281849.263184,0.112392,0.294756,-0.312045,0.482492,-1.018763,-2.807206,0.107319,-0.290507,-0.950836,0.162655,-0.486303,0.718826,-1.843908,-16.582651,-40.810364,,,,,,,
1504281849.273194,0.113189,0.300772,-0.343022,1.079150,-0.772112,-2.887730,0.107878,-0.296257,-0.948996,0.156267,-0.458747,0.781226,-2.369513,-16.434717,-40.962830,,,,,,,
1504281849.283203,0.115915,0.310793,-0.375014,1.405517,-0.675662,-2.923626,0.110115,-0.305813,-0.945702,0.134483,-0.492511,0.793343,-2.369513,-16.434717,-40.962830,,,,,,,
1504281849.293213,0.118932,0.323654,-0.407553,1.720747,-0.744332,-2.916554,0.112491,-0.318033,-0.941382,0.113583,-0.517004,0.705344,-1.692068,-17.182428,-40.580505,,,,,,,
1504281849.303223,0.120417,0.340439,-0.440754,2.133809,-0.990693,-2.914337,0.113232,-0.333901,-0.935782,0.085804,-0.511909,0.454871,-1.692068,-17.182428,-40.580505,,,,,,,
1504281849.313233,0.120263,0.360452,-0.474908,2.439168,-1.256369,-2.954968,0.112264,-0.352697,-0.928979,0.112391,-0.438486,0.451852,-1.087133,-18.606531,-39.668335,,,,,,,
1504281849.323242,0.118787,0.382242,-0.510410,2.580748,-1.486545,-3.045046,0.109955,-0.373002,-0.921292,0.122299,-0.327453,0.509259,-1.087133,-18.606531,-39.668335,,,,,,,
1504281849.333252,0.116725,0.404538,-0.547170,2.618192,-1.655138,-3.121537,0.107060,-0.393594,-0.913029,0.115047,-0.224341,0.440449,-1.081823,-20.183329,-38.756470,,,,,,,
1504281849.343262,0.114093,0.427347,-0.584434,2.674590,-1.805855,-3.119038,0.103607,-0.414458,-0.904151,0.104508,-0.155198,0.405861,-1.081823,-20.183329,-38.756470,,,,,,,
1504281849.353272,0.109519,0.451496,-0.621350,2.795612,-2.082952,-3.012667,0.098348,-0.436312,-0.894405,0.095911,-0.149122,0.392528,-1.075720,-21.985437,-37.692963,,,,,,,
1504281849.363281,0.103201,0.476812,-0.657314,2.877494,-2.313913,-2.900041,0.091527,-0.458949,-0.883736,0.086405,-0.192891,0.387657,-1.075720,-21.985437,-37.692963,,,,,,,
1504281849.373291,0.094237,0.503414,-0.692758,2.983291,-2.649455,-2.829885,0.082424,-0.482419,-0.872054,0.111378,-0.209231,0.378203,-1.369482,-23.714334,-36.405701,,,,,,,
1504281849.383301,0.081929,0.531418,-0.727884,3.075614,-3.077579,-2.773465,0.070551,-0.506756,-0.859198,0.113562,-0.175983,0.358313,-1.369482,-23.714334,-36.405701,,,,,,,
1504281849.393311,0.064919,0.560691,-0.762210,3.148907,-3.599349,-2.688093,0.054941,-0.531771,-0.845104,0.121237,-0.131300,0.317623,-2.112158,-25.820398,-35.041779,,,,,,,
1504281849.403320,0.044679,0.590877,-0.795553,3.156687,-3.907461,-2.602144,0.037091,-0.557090,-0.829623,0.137835,-0.097497,0.279224,-2.112158,-25.820398,-35.041779,,,,,,,
1504281849.413330,0.022953,0.621153,-0.827928,3.102077,-4.027487,-2.541185,0.018664,-0.581973,-0.812994,0.144514,-0.113644,0.270315,-3.230459,-27.553598,-33.456573,,,,,,,
1504281849.423340,0.002044,0.650960,-0.859513,2.967114,-3.928393,-2.490358,0.001626,-0.605950,-0.795501,0.148169,-0.137839,0.289413,-3.230459,-27.553598,-33.456573,,,,,,,
1504281849.433350,-0.016024,0.679149,-0.890651,2.737677,-3.649477,-2.462428,-0.012468,-0.628131,-0.778007,0.153597,-0.167508,0.304207,-4.498404,-29.512186,-32.020050,,,,,,,
1504281849.443360,-0.029811,0.704876,-0.921813,2.438783,-3.262343,-2.454022,-0.022703,-0.647939,-0.761353,0.157606,-0.190165,0.316407,-4.498404,-29.512186,-32.020050,,,,,,,
1504281849.453369,-0.038309,0.727923,-0.953402,2.145849,-2.803851,-2.456405,-0.028593,-0.665321,-0.746010,0.164686,-0.185876,0.307320,-4.791464,-31.241983,-30.282837,,,,,,,
1504281849.463379,-0.041008,0.748399,-0.985530,1.889448,-2.308372,-2.451319,-0.030041,-0.680467,-0.732163,0.178204,-0.163757,0.287812,-4.791464,-31.241983,-30.282837,,,,,,,
1504281849.473389,-0.038178,0.766713,-1.018217,1.686042,-1.854892,-2.442864,-0.027489,-0.693772,-0.719670,0.194359,-0.142059,0.270314,-4.861090,-32.445457,-28.698944,,,,,,,
1504281849.483388,-0.030997,0.783000,-1.051411,1.496469,-1.529414,-2.418149,-0.021967,-0.705409,-0.708460,0.210749,-0.124043,0.246164,-4.861090,-32.445457,-28.698944,,,,,,,
1504281849.493397,-0.021205,0.797138,-1.084731,1.299174,-1.349892,-2.362235,-0.014816,-0.715359,-0.698600,0.218063,-0.110156,0.206397,-4.332327,-33.270348,-27.566437,,,,,,,
1504281849.503377,-0.010794,0.809078,-1.117217,1.111261,-1.286673,-2.234584,-0.007450,-0.723651,-0.690126,0.212314,-0.115476,0.158494,-4.332327,-33.270348,-27.566437,,,,,,,
1504281849.513386,-0.001631,0.819076,-1.147692,0.945836,-1.310013,-2.048034,-0.001114,-0.730515,-0.682895,0.206115,-0.133269,0.119022,-3.356085,-33.491859,-27.112335,,,,,,,
1504281849.523396,0.005152,0.827507,-1.175440,0.817294,-1.370986,-1.829332,0.003486,-0.736247,-0.676704,0.204949,-0.196050,0.082496,-3.356085,-33.491859,-27.112335,,,,,,,
1504281849.533406,0.009202,0.834834,-1.199982,0.720760,-1.415201,-1.583919,0.006177,-0.741185,-0.671273,0.202258,-0.191112,0.077065,-2.678610,-34.164879,-26.580597,,,,,,,
1504281849.543416,0.010165,0.841222,-1.220486,0.626353,-1.429648,-1.289454,0.006776,-0.745458,-0.666518,0.203521,-0.216776,0.074431,-2.678610,-34.164879,-26.580597,,,,,,,
1504281849.553425,0.007745,0.846577,-1.236774,0.515786,-1.471654,-1.007777,0.005131,-0.749017,-0.662531,0.215068,-0.220236,0.074320,-2.227072,-34.463905,-26.052246,,,,,,,
1504281849.563435,0.001640,0.850546,-1.249138,0.360138,-1.563345,-0.751709,0.001082,-0.751641,-0.659572,0.234468,-0.218086,0.069179,-2.227072,-34.463905,-26.052246,,,,,,,
1504281849.573445,-0.008513,0.852660,-1.257941,0.156119,-1.718543,-0.525499,-0.005601,-0.753033,-0.657959,0.245851,-0.218997,0.054306,-2.450674,-34.840508,-25.749969,,,,,,,
1504281849.583455,-0.022765,0.852786,-1.263525,-0.042551,-1.883356,-0.317409,-0.014976,-0.753116,-0.657717,0.255103,-0.202435,0.030917,-2.450674,-34.840508,-25.749969,,,,,,,
1504281849.593465,-0.040242,0.851130,-1.266511,-0.210699,-1.992967,-0.150993,-0.026518,-0.752026,-0.658600,0.274977,-0.164631,0.008912,-3.125784,-34.843391,-25.826630,,,,,,,
1504281849.603474,-0.059639,0.848091,-1.267473,-0.333115,-2.008081,-0.017753,-0.039423,-0.750019,-0.660240,0.300928,-0.133343,0.003914,-3.125784,-34.843391,-25.826630,,,,,,,
1504281849.613484,-0.079476,0.844215,-1.267047,-0.394797,-1.924554,0.075924,-0.052742,-0.747450,-0.662221,0.326347,-0.095293,0.018926,-3.876684,-34.621315,-26.055206,,,,,,,
1504281849.623494,-0.098598,0.839879,-1.265779,-0.433388,-1.777244,0.134305,-0.065713,-0.744562,-0.664311,0.350778,-0.055822,0.042027,-3.876684,-34.621315,-26.055206,,,,,,,
1504281849.633504,-0.116140,0.835301,-1.264292,-0.442691,-1.597096,0.148915,-0.077749,-0.741498,-0.666435,0.371252,-0.034808,0.065544,-5.002203,-34.550926,-26.283539,,,,,,,
1504281849.643513,-0.131441,0.830798,-1.263161,-0.440944,-1.394620,0.122943,-0.088374,-0.738470,-0.668470,0.394313,-0.009364,0.072981,-5.002203,-34.550926,-26.283539,,,,,,,
1504281849.653523,-0.144135,0.826567,-1.262809,-0.401694,-1.191354,0.066080,-0.097300,-0.735610,-0.670381,0.411555,0.005157,0.070344,-6.052938,-34.255638,-26.288391,,,,,,,
1504281849.663533,-0.154035,0.822878,-1.263431,-0.357014,-0.984923,-0.004655,-0.104348,-0.733106,-0.672062,0.423577,0.014021,0.063450,-6.052938,-34.255638,-26.288391,,,,,,,
1504281849.673543,-0.161432,0.819895,-1.264867,-0.293352,-0.798906,-0.063580,-0.109667,-0.731074,-0.673427,0.428454,0.009409,0.059612,-6.729528,-34.032326,-26.966736,,,,,,,
1504281849.683552,-0.166823,0.817649,-1.266817,-0.226841,-0.644900,-0.103230,-0.113569,-0.729540,-0.674444,0.424176,0.006624,0.056188,-6.729528,-34.032326,-26.966736,,,,,,,
1504281849.693562,-0.170896,0.815957,-1.268976,-0.183246,-0.540813,-0.120416,-0.116524,-0.728382,-0.675191,0.416786,0.010745,0.048314,-6.879416,-34.033150,-26.892120,,,,,,,
1504281849.703572,-0.174426,0.814572,-1.271176,-0.156286,-0.506932,-0.123632,-0.119082,-0.727432,-0.675768,0.410448,0.006500,0.042421,-6.879416,-34.033150,-26.892120,,,,,,,
1504281849.713582,-0.178290,0.813448,-1.272997,-0.124588,-0.526406,-0.092588,-0.121837,-0.726660,-0.676107,0.404414,0.000418,0.034032,-7.105124,-33.883705,-27.118774,,,,,,,
1504281849.723591,-0.183266,0.812529,-1.274048,-0.094405,-0.590642,-0.043322,-0.125321,-0.726029,-0.676148,0.399643,-0.015762,0.026719,-7.105124,-33.883705,-27.118774,,,,,,,
1504281849.733601,-0.189591,0.811890,-1.274451,-0.061191,-0.684725,-0.007874,-0.129682,-0.725589,-0.675798,0.407408,-0.036938,0.023363,-7.479483,-33.961006,-26.819153,,,,,,,
1504281849.743611,-0.197164,0.811441,-1.274511,-0.041822,-0.788263,0.007286,-0.134860,-0.725280,-0.675116,0.417606,-0.048462,0.018057,-7.479483,-33.961006,-26.819153,,,,,,,
1504281849.753621,-0.205886,0.811077,-1.274620,-0.037412,-0.911896,-0.005297,-0.140798,-0.725029,-0.674172,0.429098,-0.040733,0.013513,-7.704748,-34.036415,-27.119110,,,,,,,
1504281849.763631,-0.215755,0.810671,-1.275036,-0.052294,-1.050282,-0.024292,-0.147507,-0.724750,-0.673037,0.442398,-0.025204,0.010669,-7.704748,-34.036415,-27.119110,,,,,,,
1504281849.773640,-0.226789,0.809799,-1.275745,-0.112058,-1.188313,-0.028422,-0.155066,-0.724148,-0.671985,0.447593,-0.012851,0.004672,-8.380117,-33.889442,-27.121918,,,,,,,
1504281849.783650,-0.239143,0.808215,-1.276553,-0.185795,-1.327315,-0.013361,-0.163627,-0.723055,-0.671131,0.447532,-0.009901,0.000736,-8.380117,-33.889442,-27.121918,,,,,,,
1504281849.793660,-0.252990,0.805875,-1.277347,-0.256477,-1.479138,0.010267,-0.173328,-0.721437,-0.670438,0.447315,-0.021605,0.003812,-8.680227,-33.890648,-27.197662,,,,,,,
1504281849.803670,-0.268712,0.803005,-1.277905,-0.293285,-1.655763,0.047874,-0.184395,-0.719446,-0.669623,0.451165,-0.037436,0.008475,-8.680227,-33.890648,-27.197662,,,,,,,
1504281849.813679,-0.286783,0.799902,-1.277865,-0.292992,-1.854020,0.099459,-0.197096,-0.717288,-0.668320,0.458433,-0.043180,0.009140,-9.805822,-33.521141,-26.978241,,,,,,,
1504281849.823689,-0.307458,0.797070,-1.277336,-0.244839,-2.089937,0.121307,-0.211484,-0.715312,-0.666036,0.474622,-0.035222,0.008565,-9.805822,-33.521141,-26.978241,,,,,,,
1504281849.833699,-0.331017,0.795153,-1.276363,-0.125292,-2.347736,0.126238,-0.227561,-0.713971,-0.662165,0.490408,-0.021243,0.010477,-11.005468,-33.751244,-27.129517,,,,,,,
1504281849.843709,-0.357633,0.794604,-1.274530,0.030626,-2.585602,0.144006,-0.245240,-0.713586,-0.656241,0.492676,0.008538,0.013587,-11.005468,-33.751244,-27.129517,,,,,,,
1504281849.853718,-0.387132,0.795395,-1.271450,0.195462,-2.767078,0.175567,-0.264275,-0.714140,-0.648200,0.491127,0.042601,0.021994,-12.279562,-33.758171,-26.532684,,,,,,,
1504281849.863728,-0.418196,0.797594,-1.267404,0.348720,-2.817354,0.171651,-0.283642,-0.715678,-0.638242,0.489162,0.064784,0.035169,-12.279562,-33.758171,-26.532684,,,,,,,
1504281849.873738,-0.449262,0.800522,-1.262692,0.417602,-2.735881,0.182301,-0.302418,-0.717720,-0.627234,0.483616,0.073326,0.056707,-14.153189,-33.992653,-26.010559,,,,,,,
1504281849.883748,-0.478806,0.803744,-1.257225,0.467498,-2.492283,0.194767,-0.319747,-0.719959,-0.615971,0.466201,0.046208,0.087483,-14.153189,-33.992653,-26.010559,,,,,,,
1504281849.893757,-0.505554,0.807507,-1.251453,0.541670,-2.174249,0.165515,-0.334792,-0.722566,-0.604824,0.466918,0.021104,0.104641,-15.051489,-34.223198,-25.261078,,,,,,,
1504281849.903767,-0.529209,0.812329,-1.245244,0.655645,-1.821368,0.126663,-0.347241,-0.725891,-0.593722,0.446805,0.018265,0.118273,-15.051489,-34.223198,-25.261078,,,,,,,
1504281849.913747,-0.549587,0.818320,-1.238150,0.801882,-1.424019,0.108070,-0.356989,-0.729998,-0.582804,0.421412,0.030047,0.115534,-16.475119,-34.231392,-24.364594,,,,,,,
1504281849.923756,-0.567465,0.825732,-1.229452,0.987203,-1.061116,0.113088,-0.364433,-0.735045,-0.571750,0.405326,0.035704,0.113147,-16.475119,-34.231392,-24.364594,,,,,,,
1504281849.933766,-0.583359,0.833995,-1.219098,1.091924,-0.750862,0.150082,-0.370115,-0.740622,-0.560798,0.393553,0.036566,0.105719,-17.148092,-34.461372,-23.389557,,,,,,,
1504281849.943776,-0.598021,0.842357,-1.207417,1.131689,-0.554099,0.193567,-0.374798,-0.746214,-0.550174,0.391277,0.061659,0.079898,-17.148092,-34.461372,-23.389557,,,,,,,
1504281849.953786,-0.612300,0.850528,-1.194775,1.155668,-0.470148,0.226550,-0.379098,-0.751629,-0.539758,0.386331,0.078060,0.037485,-17.594992,-35.289742,-22.709442,,,,,,,
1504281849.963795,-0.627280,0.858613,-1.181375,1.187312,-0.502399,0.248010,-0.383561,-0.756937,-0.529082,0.376573,0.063318,-0.005327,-17.594992,-35.289742,-22.709442,,,,,,,
1504281849.973805,-0.644576,0.866908,-1.166558,1.263825,-0.644803,0.295359,-0.388868,-0.762331,-0.517332,0.360578,0.026171,-0.039141,-18.192541,-35.594673,-21.583679,,,,,,,
1504281849.983815,-0.666224,0.875273,-1.149376,1.359203,-0.931272,0.394231,-0.396020,-0.767719,-0.503762,0.340570,-0.030469,-0.058052,-18.192541,-35.594673,-21.583679,,,,,,,
1504281849.993825,-0.693671,0.883222,-1.129776,1.404439,-1.345208,0.501779,-0.405782,-0.772788,-0.487996,0.329808,-0.084283,-0.073115,-18.714300,-36.124580,-20.306000,,,,,,,
1504281850.003834,-0.727497,0.889839,-1.108020,1.399930,-1.820577,0.644574,-0.418644,-0.776970,-0.470164,0.333912,-0.083320,-0.103108,-18.714300,-36.124580,-20.306000,,,,,,,
1504281850.013844,-0.767402,0.894488,-1.084533,1.322947,-2.270865,0.811750,-0.434555,-0.779889,-0.450484,0.337051,-0.065234,-0.130220,-19.761129,-36.581993,-18.955170,,,,,,,
1504281850.023854,-0.812568,0.896711,-1.059787,1.213101,-2.679283,0.970244,-0.453192,-0.781278,-0.429211,0.354345,-0.028262,-0.156589,-19.761129,-36.581993,-18.955170,,,,,,,
1504281850.033864,-0.860395,0.896008,-1.036080,0.983786,-3.028047,1.037708,-0.473609,-0.780839,-0.407411,0.378517,0.003328,-0.164854,-21.107382,-37.041496,-17.230103,,,,,,,
1504281850.043873,-0.909890,0.893847,-1.017467,0.703082,-3.681965,0.865456,-0.494517,-0.779487,-0.384516,0.383097,0.047966,-0.189199,-21.107382,-37.041496,-17.230103,,,,,,,
1504281850.053883,-0.962535,0.890315,-1.001746,0.580724,-4.148796,0.905560,-0.516321,-0.777270,-0.359532,0.355066,0.105014,-0.241023,-22.904852,-36.978188,-15.435089,,,,,,,
1504281850.063893,-1.017309,0.884519,-0.986641,0.484335,-4.359159,1.070142,-0.539054,-0.773610,-0.333089,0.373710,0.143666,-0.336589,-22.904852,-36.978188,-15.435089,,,,,,,
1504281850.073903,-1.071140,0.876755,-0.973058,0.345406,-4.345297,1.138189,-0.561450,-0.768667,-0.306471,0.464892,0.119940,-0.334093,-24.851751,-37.140541,-13.638702,,,,,,,
1504281850.083913,-1.121082,0.867653,-0.962122,0.196855,-4.087300,1.173767,-0.582327,-0.762813,-0.281090,0.476858,0.042720,-0.303169,-24.851751,-37.140541,-13.638702,,,,,,,
1504281850.093922,-1.162764,0.857044,-0.953848,0.049439,-3.379697,1.274733,-0.600928,-0.755910,-0.259777,0.435630,-0.018107,-0.292652,-26.650259,-36.702065,-11.921509,,,,,,,
1504281850.103932,-1.193062,0.844507,-0.947551,-0.113190,-2.300085,1.384623,-0.617283,-0.747644,-0.244930,0.427601,-0.045218,-0.245304,-26.650259,-36.702065,-11.921509,,,,,,,
1504281850.113942,-1.210623,0.830503,-0.942831,-0.240440,-1.109868,1.422865,-0.631225,-0.738271,-0.237720,0.421966,-0.074992,-0.146497,-28.299429,-36.187325,-10.504486,,,,,,,
1504281850.123952,-1.216683,0.816608,-0.939980,-0.318089,-0.196989,1.339998,-0.642215,-0.728828,-0.237425,0.389377,-0.063683,-0.072481,-28.299429,-36.187325,-10.504486,,,,,,,
1504281850.133961,-1.215241,0.804031,-0.938507,-0.351085,0.373556,1.168150,-0.650414,-0.720159,-0.241523,0.355339,-0.060496,-0.043282,-29.800695,-35.594353,-10.362701,,,,,,,
1504281850.143971,-1.209819,0.792924,-0.937752,-0.324745,0.646276,1.030020,-0.656538,-0.712409,-0.247856,0.326597,-0.104318,-0.072976,-29.800695,-35.594353,-10.362701,,,,,,,
1504281850.153981,-1.204432,0.782686,-0.935888,-0.210390,0.653887,1.003520,-0.661969,-0.705186,-0.253988,0.312649,-0.134719,-0.100122,-30.552725,-35.146538,-10.967926,,,,,,,
1504281850.163991,-1.202438,0.772385,-0.931997,-0.079508,0.393784,1.085328,-0.668202,-0.697846,-0.257910,0.321354,-0.155822,-0.139857,-30.552725,-35.146538,-10.967926,,,,,,,
1504281850.174000,-1.205738,0.761432,-0.926091,0.031707,-0.035625,1.202625,-0.676149,-0.689959,-0.258416,0.341234,-0.160826,-0.189017,-30.854193,-34.697426,-11.197021,,,,,,,
1504281850.184010,-1.215220,0.749826,-0.918377,0.143374,-0.549208,1.308329,-0.686030,-0.681512,-0.254764,0.360590,-0.173393,-0.234127,-30.854193,-34.697426,-11.197021,,,,,,,
1504281850.194020,-1.230756,0.737774,-0.908994,0.274620,-1.035214,1.383065,-0.697598,-0.672642,-0.246798,0.369595,-0.189769,-0.256819,-31.830694,-34.101814,-11.203949,,,,,,,
1504281850.204030,-1.251523,0.725763,-0.897609,0.463626,-1.396975,1.413917,-0.710193,-0.663706,-0.234778,0.377521,-0.213812,-0.266855,-31.830694,-34.101814,-11.203949,,,,,,,
1504281850.214039,-1.276140,0.714393,-0.883934,0.693727,-1.594907,1.382643,-0.722931,-0.655159,-0.219403,0.388916,-0.246117,-0.261020,-32.880806,-33.657875,-10.534912,,,,,,,
1504281850.224049,-1.302519,0.703996,-0.867875,0.942830,-1.571319,1.318989,-0.734995,-0.647268,-0.202053,0.401240,-0.266825,-0.252521,-32.880806,-33.657875,-10.534912,,,,,,,
1504281850.234059,-1.328295,0.694708,-0.849786,1.151050,-1.345956,1.218616,-0.745762,-0.640161,-0.184479,0.418156,-0.291296,-0.234818,-34.080116,-32.991402,-8.967896,,,,,,,
1504281850.244069,-1.351605,0.686629,-0.830460,1.293034,-1.011335,1.096588,-0.754883,-0.633934,-0.168166,0.429566,-0.334588,-0.201890,-34.080116,-32.991402,-8.967896,,,,,,,
1504281850.254079,-1.371382,0.679465,-0.810990,1.336901,-0.664196,0.986110,-0.762493,-0.628377,-0.154100,0.427319,-0.354411,-0.180495,-35.128975,-32.549110,-7.473846,,,,,,,
1504281850.264088,-1.387794,0.673288,-0.792318,1.289445,-0.414311,0.846825,-0.768721,-0.623560,-0.142269,0.434645,-0.362509,-0.178684,-35.128975,-32.549110,-7.473846,,,,,,,
1504281850.274098,-1.400728,0.668260,-0.776002,1.117749,-0.243289,0.676509,-0.773577,-0.619621,-0.132845,0.453250,-0.347267,-0.188887,-35.727547,-32.404198,-6.276428,,,,,,,
1504281850.284108,-1.410882,0.664312,-0.762773,0.914065,-0.192435,0.523428,-0.777295,-0.616518,-0.125371,0.471280,-0.333861,-0.193767,-35.727547,-32.404198,-6.276428,,,,,,,
1504281850.294118,-1.420013,0.661268,-0.751364,0.829043,-0.219326,0.413385,-0.780259,-0.614118,-0.118550,0.466691,-0.290347,-0.205364,-36.327660,-31.958246,-5.606262,,,,,,,
1504281850.304127,-1.430042,0.659235,-0.740044,0.871288,-0.343167,0.301600,-0.782644,-0.612512,-0.110894,0.472372,-0.267523,-0.219352,-36.327660,-31.958246,-5.606262,,,,,,,
1504281850.314137,-1.442359,0.658393,-0.727633,0.987857,-0.515567,0.184691,-0.784461,-0.611847,-0.101312,0.481162,-0.279694,-0.218100,-36.552315,-31.735453,-5.008545,,,,,,,
1504281850.324116,-1.456970,0.658668,-0.714356,1.058507,-0.689726,0.073044,-0.785691,-0.612064,-0.089821,0.477158,-0.295743,-0.226067,-36.552315,-31.735453,-5.008545,,,,,,,
1504281850.334126,-1.473360,0.659731,-0.700498,1.113343,-0.820098,-0.006687,-0.786409,-0.612904,-0.076869,0.465456,-0.323726,-0.223196,-36.776039,-31.663401,-4.034607,,,,,,,
1504281850.344136,-1.491069,0.661196,-0.685979,1.169552,-0.892970,-0.055561,-0.786751,-0.614061,-0.062859,0.454720,-0.349013,-0.213387,-36.776039,-31.663401,-4.034607,,,,,,,
1504281850.354146,-1.509593,0.663087,-0.670548,1.244512,-0.899913,-0.121598,-0.786620,-0.615553,-0.048204,0.451247,-0.383257,-0.206755,-36.698479,-31.965464,-2.832123,,,,,,,
1504281850.364155,-1.527915,0.665527,-0.654301,1.302256,-0.794819,-0.193199,-0.785868,-0.617474,-0.033720,0.438853,-0.415958,-0.201968,-36.698479,-31.965464,-2.832123,,,,,,,
1504281850.374165,-1.544787,0.668186,-0.637430,1.339282,-0.586236,-0.223390,-0.784681,-0.619563,-0.020413,0.417280,-0.447133,-0.203555,-36.621895,-31.967218,-1.781952,,,,,,,
1504281850.384175,-1.559047,0.670473,-0.620814,1.286749,-0.331157,-0.191909,-0.783474,-0.621357,-0.009206,0.400646,-0.470257,-0.204509,-36.621895,-31.967218,-1.781952,,,,,,,
1504281850.394185,-1.569989,0.671900,-0.605641,1.148493,-0.093536,-0.114647,-0.782640,-0.622474,-0.000632,0.394762,-0.483620,-0.217340,-36.543694,-32.344872,-0.278931,,,,,,,
1504281850.404195,-1.577776,0.672401,-0.592838,0.945388,0.041254,-0.035182,-0.782309,-0.622866,0.005461,0.396567,-0.490766,-0.241972,-36.543694,-32.344872,-0.278931,,,,,,,
1504281850.414204,-1.583686,0.672323,-0.583084,0.701494,-0.010063,0.009317,-0.782312,-0.622805,0.010084,0.406092,-0.498518,-0.274031,-36.318062,-32.195198,0.395538,,,,,,,
1504281850.424214,-1.589499,0.672123,-0.576540,0.447882,-0.237078,0.009278,-0.782365,-0.622649,0.014634,0.414765,-0.488847,-0.320878,-36.318062,-32.195198,0.395538,,,,,,,
1504281850.434224,-1.595927,0.672131,-0.573314,0.188686,-0.509844,-0.014173,-0.782250,-0.622655,0.019663,0.425438,-0.460414,-0.381266,-36.617348,-32.346992,0.620911,,,,,,,
1504281850.444234,-1.602960,0.672459,-0.573247,-0.056430,-0.757150,-0.038712,-0.781888,-0.622912,0.025157,0.424923,-0.433714,-0.423793,-36.617348,-32.346992,0.620911,,,,,,,
1504281850.454243,-1.610181,0.673146,-0.576234,-0.297913,-0.954396,-0.069737,-0.781258,-0.623449,0.030785,0.414467,-0.419322,-0.439355,-36.391106,-32.571877,1.073151,,,,,,,
1504281850.464253,-1.616613,0.674287,-0.582210,-0.527668,-1.018539,-0.099909,-0.780332,-0.624341,0.035778,0.398985,-0.427707,-0.437190,-36.391106,-32.571877,1.073151,,,,,,,
1504281850.474263,-1.620759,0.675702,-0.591115,-0.759622,-0.944159,-0.108982,-0.779294,-0.625445,0.038968,0.382901,-0.448468,-0.420514,-36.615944,-32.498344,1.297058,,,,,,,
1504281850.484262,-1.621501,0.677195,-0.603016,-0.993018,-0.770686,-0.097951,-0.778332,-0.626609,0.039499,0.366558,-0.447411,-0.384439,-36.615944,-32.498344,1.297058,,,,,,,
1504281850.494271,-1.618318,0.678673,-0.618168,-1.247689,-0.588515,-0.085904,-0.777527,-0.627761,0.036978,0.350571,-0.435761,-0.350439,-36.690422,-32.574135,1.522430,,,,,,,
1504281850.504281,-1.611575,0.680048,-0.636495,-1.488821,-0.445886,-0.070563,-0.776896,-0.628830,0.031698,0.337123,-0.417755,-0.323843,-36.690422,-32.574135,1.522430,,,,,,,
1504281850.514291,-1.602446,0.681364,-0.657831,-1.714910,-0.436559,-0.076308,-0.776325,-0.629853,0.024578,0.329899,-0.393783,-0.309094,-36.165886,-32.795433,0.850403,,,,,,,
1504281850.524301,-1.592241,0.682841,-0.681732,-1.903097,-0.507436,-0.108531,-0.775605,-0.631000,0.016636,0.327408,-0.363446,-0.301365,-36.165886,-32.795433,0.850403,,,,,,,
1504281850.534310,-1.581492,0.684643,-0.707870,-2.064671,-0.597694,-0.159887,-0.774600,-0.632397,0.008285,0.327365,-0.341221,-0.301269,-36.017235,-32.568703,0.324097,,,,,,,
1504281850.544320,-1.570577,0.686666,-0.735655,-2.170848,-0.690552,-0.198334,-0.773364,-0.633962,-0.000170,0.315051,-0.321208,-0.281400,-36.017235,-32.568703,0.324097,,,,,,,
1504281850.554330,-1.560043,0.688603,-0.763935,-2.170368,-0.767273,-0.203535,-0.772090,-0.635459,-0.008303,0.295954,-0.303185,-0.247923,-35.942497,-33.091286,-0.721802,,,,,,,
1504281850.564340,-1.550994,0.690382,-0.791420,-2.091086,-0.868079,-0.217096,-0.770852,-0.636832,-0.015267,0.277001,-0.282861,-0.221336,-35.942497,-33.091286,-0.721802,,,,,,,
1504281850.574350,-1.543661,0.692213,-0.817223,-1.944116,-0.908704,-0.228511,-0.769552,-0.638243,-0.020887,0.228338,-0.206072,-0.182848,-35.943657,-33.164482,-1.621277,,,,,,,
1504281850.584359,-1.537247,0.693746,-0.840329,-1.692689,-0.804244,-0.200507,-0.768423,-0.639422,-0.025790,0.227209,-0.204893,-0.177945,-35.943657,-33.164482,-1.621277,,,,,,,
1504281850.594369,-1.532695,0.694784,-0.858899,-1.312433,-0.711538,-0.137035,-0.767635,-0.640219,-0.029262,0.208171,-0.201974,-0.114323,-35.945091,-33.087837,-2.446838,,,,,,,
1504281850.604379,-1.529575,0.694612,-0.872691,-0.968024,-0.509937,0.014778,-0.767650,-0.640087,-0.031662,0.200160,-0.180882,-0.046753,-35.945091,-33.087837,-2.446838,,,,,,,
1504281850.614389,-1.527716,0.692607,-0.881847,-0.605260,-0.408664,0.176405,-0.768870,-0.638546,-0.033144,0.171503,-0.191868,0.003557,-36.095238,-33.163063,-2.671661,,,,,,,
1504281850.624398,-1.532992,0.691571,-0.885749,-0.239498,-0.903867,0.064768,-0.769695,-0.637748,-0.029111,0.175075,-0.234322,0.075422,-36.095238,-33.163063,-2.671661,,,,,,,
1504281850.634408,-1.543135,0.690447,-0.885409,0.117773,-1.004931,0.147755,-0.770667,-0.636882,-0.021323,0.230979,-0.137670,-0.000070,-36.021004,-32.862724,-2.673737,,,,,,,
1504281850.644418,-1.556295,0.688315,-0.880464,0.467426,-0.994039,0.226262,-0.772236,-0.635237,-0.011199,0.173955,-0.106112,-0.083985,-36.021004,-32.862724,-2.673737,,,,,,,
1504281850.654428,-1.571271,0.685705,-0.871250,0.785023,-0.867779,0.285297,-0.773973,-0.633219,0.000367,0.162172,-0.122305,0.016020,-36.320274,-32.790276,-2.075012,,,,,,,
1504281850.664437,-1.586126,0.682291,-0.858826,1.014791,-0.651283,0.342953,-0.776039,-0.630573,0.011897,0.116463,-0.110196,-0.005519,-36.320274,-32.790276,-2.075012,,,,,,,
1504281850.674447,-1.600766,0.678578,-0.844565,1.142650,-0.539383,0.342977,-0.778116,-0.627687,0.023327,0.114679,-0.100051,-0.027507,-36.243355,-32.792473,-0.799805,,,,,,,
1504281850.684457,-1.615180,0.674769,-0.829475,1.199690,-0.484430,0.332305,-0.780082,-0.624717,0.034645,0.139045,-0.074120,-0.095452,-36.243355,-32.792473,-0.799805,,,,,,,
1504281850.694467,-1.629081,0.670929,-0.814756,1.143278,-0.472236,0.324714,-0.781914,-0.621714,0.045626,0.169839,-0.058340,-0.201219,-36.317757,-32.494606,0.097778,,,,,,,
1504281850.704476,-1.641753,0.667018,-0.801606,1.031418,-0.453196,0.321285,-0.783693,-0.618646,0.055702,0.192339,-0.064124,-0.283409,-36.317757,-32.494606,0.097778,,,,,,,
1504281850.714486,-1.654290,0.663122,-0.789353,0.973392,-0.511315,0.310612,-0.785329,-0.615580,0.065723,0.203481,-0.098760,-0.336688,-36.765877,-32.573875,1.222229,,,,,,,
1504281850.724465,-1.666057,0.659326,-0.778573,0.843280,-0.511297,0.299713,-0.786821,-0.612585,0.075181,0.220507,-0.109309,-0.391663,-36.765877,-32.573875,1.222229,,,,,,,
1504281850.734475,-1.675970,0.655695,-0.770035,0.660299,-0.450107,0.290749,-0.788245,-0.609710,0.083210,0.231360,-0.116319,-0.438038,-37.065880,-32.126717,1.968140,,,,,,,
1504281850.744485,-1.683492,0.652353,-0.763857,0.478735,-0.350559,0.273180,-0.789617,-0.607058,0.089365,0.237798,-0.153516,-0.443231,-37.065880,-32.126717,1.968140,,,,,,,
1504281850.754495,-1.688603,0.649515,-0.759962,0.293008,-0.249890,0.236389,-0.790857,-0.604800,0.093601,0.244852,-0.185620,-0.442707,-37.215416,-31.903727,2.641113,,,,,,,
1504281850.764505,-1.691444,0.647252,-0.758363,0.108214,-0.165214,0.200695,-0.791945,-0.602997,0.096013,0.254622,-0.202423,-0.443944,-37.215416,-31.903727,2.641113,,,,,,,
1504281850.774514,-1.692345,0.645566,-0.758816,-0.055422,-0.105218,0.161880,-0.792866,-0.601651,0.096849,0.259297,-0.208926,-0.444307,-37.140190,-31.903696,2.791290,,,,,,,
1504281850.784524,-1.692205,0.644640,-0.761015,-0.191854,-0.127472,0.098706,-0.793432,-0.600911,0.096806,0.260077,-0.212413,-0.437031,-37.140190,-31.903696,2.791290,,,,,,,
1504281850.794534,-1.692346,0.644958,-0.764277,-0.305427,-0.283020,-0.054923,-0.793229,-0.601165,0.096894,0.265107,-0.220902,-0.431001,-37.366402,-31.379847,2.861755,,,,,,,
1504281850.804544,-1.696547,0.645235,-0.769427,-0.272052,-0.671353,0.118739,-0.792650,-0.601386,0.100205,0.276109,-0.215691,-0.426651,-37.366402,-31.379847,2.861755,,,,,,,
1504281850.814553,-1.705032,0.639636,-0.757721,1.226881,0.052290,0.446685,-0.795096,-0.596903,0.107376,0.205725,-0.224904,-0.432632,-37.515450,-31.755533,2.864227,,,,,,,
1504281850.824563,-1.714157,0.635538,-0.748954,0.498175,-0.711973,0.288795,-0.796497,-0.593611,0.114975,0.218829,-0.323915,-0.080170,-37.515450,-31.755533,2.864227,,,,,,,
1504281850.834573,-1.727449,0.631214,-0.746763,0.290546,-1.214478,0.468645,-0.797426,-0.590125,0.125951,0.241717,-0.369637,0.058574,-37.665276,-31.382700,3.611053,,,,,,,
1504281850.844583,-1.744860,0.623923,-0.738827,0.871639,-1.303601,0.618178,-0.799329,-0.584224,0.140557,0.270459,-0.319860,-0.499642,-37.665276,-31.382700,3.611053,,,,,,,
1504281850.854592,-1.763276,0.616959,-0.730217,0.768411,-1.319718,0.539040,-0.800579,-0.578557,0.156027,0.301190,-0.205409,-0.310278,-37.740196,-30.785120,4.656403,,,,,,,
1504281850.864602,-1.778626,0.610309,-0.722540,0.749721,-0.999865,0.520297,-0.801837,-0.573121,0.169087,0.270404,-0.230590,-0.269795,-37.740196,-30.785120,4.656403,,,,,,,
1504281850.874612,-1.789789,0.604282,-0.715181,0.697912,-0.593357,0.435166,-0.803256,-0.568172,0.178774,0.279376,-0.262563,-0.292803,-37.813652,-30.637995,5.930115,,,,,,,
1504281850.884622,-1.795748,0.599610,-0.708327,0.644152,-0.066360,0.292179,-0.804756,-0.564321,0.184148,0.288169,-0.216868,-0.242284,-37.813652,-30.637995,5.930115,,,,,,,
1504281850.894632,-1.795928,0.596804,-0.701527,0.593078,0.496900,0.096830,-0.806263,-0.562002,0.184645,0.296924,-0.198542,-0.252608,-38.113457,-30.265848,6.676575,,,,,,,
1504281850.904641,-1.791515,0.596090,-0.695369,0.483787,0.858165,-0.087590,-0.807461,-0.561411,0.181173,0.311306,-0.183782,-0.223852,-38.113457,-30.265848,6.676575,,,,,,,
1504281850.914651,-1.785148,0.597142,-0.690006,0.388109,0.944352,-0.233074,-0.808021,-0.562281,0.175903,0.316764,-0.169225,-0.234146,-38.113243,-30.266138,6.826569,,,,,,,
1504281850.924661,-1.778655,0.599538,-0.685096,0.333999,0.911881,-0.346255,-0.807826,-0.564261,0.170374,0.333292,-0.177835,-0.302210,-38.113243,-30.266138,6.826569,,,,,,,
1504281850.934671,-1.772729,0.603119,-0.680665,0.263367,0.819865,-0.450821,-0.806836,-0.567214,0.165178,0.352109,-0.192552,-0.353945,-37.888573,-30.488932,6.228790,,,,,,,
1504281850.944680,-1.766870,0.607936,-0.677453,0.127787,0.750751,-0.545933,-0.805101,-0.571174,0.159914,0.353197,-0.211342,-0.366732,-37.888573,-30.488932,6.228790,,,,,,,
1504281850.954690,-1.761125,0.613694,-0.675895,-0.027704,0.625271,-0.589744,-0.802763,-0.575891,0.154661,0.332167,-0.233267,-0.354902,-37.889702,-30.263193,5.852081,,,,,,,
1504281850.964700,-1.756249,0.619263,-0.675913,-0.103035,0.451066,-0.525524,-0.800343,-0.580435,0.150151,0.293309,-0.225854,-0.335835,-37.889702,-30.263193,5.852081,,,,,,,
1504281850.974710,-1.753099,0.623667,-0.676036,-0.093593,0.242001,-0.400252,-0.798291,-0.584016,0.147164,0.251096,-0.209045,-0.344125,-37.437935,-31.011026,5.783844,,,,,,,
1504281850.984719,-1.752822,0.627160,-0.676399,-0.092192,-0.069245,-0.323916,-0.796321,-0.586847,0.146573,0.261241,-0.229742,-0.313596,-37.437935,-31.011026,5.783844,,,,,,,
1504281850.994729,-1.755317,0.629941,-0.676541,-0.043276,-0.310550,-0.249755,-0.794345,-0.589097,0.148259,0.242633,-0.211562,-0.319524,-37.663048,-31.236139,5.334961,,,,,,,
1504281851.004739,-1.759906,0.631475,-0.675573,0.083265,-0.425731,-0.135120,-0.792768,-0.590336,0.151733,0.227445,-0.202068,-0.307037,-37.663048,-31.236139,5.334961,,,,,,,
1504281851.014749,-1.766244,0.631698,-0.673198,0.217532,-0.517517,-0.034390,-0.791661,-0.590516,0.156729,0.219380,-0.227889,-0.250174,-37.212456,-31.384409,5.487213,,,,,,,
1504281851.024758,-1.774595,0.630769,-0.669188,0.379411,-0.623335,0.042922,-0.790861,-0.589766,0.163445,0.219252,-0.253404,-0.207162,-37.212456,-31.384409,5.487213,,,,,,,
1504281851.034768,-1.785135,0.629081,-0.663359,0.530922,-0.738631,0.071140,-0.790066,-0.588402,0.171984,0.236813,-0.272560,-0.199572,-36.986580,-31.459299,5.938324,,,,,,,
1504281851.044778,-1.797899,0.627183,-0.655920,0.659091,-0.872857,0.042779,-0.788894,-0.586866,0.182305,0.263076,-0.265352,-0.210091,-36.986580,-31.459299,5.938324,,,,,,,
1504281851.054788,-1.812848,0.625611,-0.646885,0.778054,-0.992031,-0.041129,-0.786975,-0.585593,0.194298,0.295505,-0.249796,-0.233636,-37.211128,-31.236658,6.611115,,,,,,,
1504281851.064798,-1.829486,0.624665,-0.636539,0.850503,-1.066053,-0.139074,-0.784169,-0.584826,0.207506,0.323063,-0.226042,-0.263124,-37.211128,-31.236658,6.611115,,,,,,,
1504281851.074807,-1.846392,0.624524,-0.625364,0.884519,-1.021456,-0.256508,-0.780628,-0.584711,0.220755,0.338200,-0.185614,-0.288336,-37.060005,-31.013224,7.734772,,,,,,,
1504281851.084817,-1.862449,0.625535,-0.613549,0.893939,-0.867936,-0.401929,-0.776416,-0.585531,0.233091,0.352954,-0.169748,-0.287565,-37.060005,-31.013224,7.734772,,,,,,,
1504281851.094827,-1.877054,0.627808,-0.600839,0.924112,-0.663422,-0.562348,-0.771658,-0.587372,0.244003,0.354865,-0.171997,-0.273056,-36.607903,-31.088739,9.011505,,,,,,,
1504281851.104837,-1.890588,0.631524,-0.587190,0.936781,-0.520558,-0.734430,-0.766208,-0.590375,0.253736,0.350620,-0.180666,-0.258222,-36.607903,-31.088739,9.011505,,,,,,,
1504281851.114846,-1.903283,0.636324,-0.573037,0.922309,-0.396716,-0.843548,-0.760238,-0.594243,0.262515,0.345031,-0.205455,-0.261172,-36.155724,-31.463358,9.840454,,,,,,,
1504281851.124856,-1.914818,0.641823,-0.558767,0.885223,-0.273795,-0.912143,-0.754071,-0.598657,0.270160,0.341168,-0.244895,-0.278903,-36.155724,-31.463358,9.840454,,,,,,,
1504281851.134835,-1.925332,0.647774,-0.544674,0.844509,-0.184976,-0.949729,-0.747835,-0.603413,0.276831,0.327059,-0.298657,-0.276801,-35.253242,-31.911112,10.746033,,,,,,,
1504281851.144845,-1.935313,0.654037,-0.531160,0.762446,-0.189601,-0.975481,-0.741490,-0.608395,0.282928,0.302250,-0.347385,-0.278427,-35.253242,-31.911112,10.746033,,,,,,,
1504281851.154855,-1.945051,0.660441,-0.518943,0.645481,-0.233459,-0.911562,-0.735057,-0.613466,0.288705,0.272884,-0.355162,-0.300088,-34.801186,-32.285591,11.500000,,,,,,,
1504281851.164865,-1.953712,0.665586,-0.508503,0.548618,-0.233901,-0.744147,-0.729592,-0.617520,0.293878,0.267800,-0.343921,-0.327615,-34.801186,-32.285591,11.500000,,,,,,,
1504281851.174874,-1.962044,0.669811,-0.499801,0.452417,-0.311028,-0.618224,-0.724700,-0.620838,0.298949,0.269271,-0.334942,-0.316146,-34.199745,-32.583778,11.953735,,,,,,,
1504281851.184884,-1.970035,0.673291,-0.492621,0.361805,-0.366872,-0.509408,-0.720293,-0.623563,0.303889,0.252168,-0.338672,-0.312083,-34.199745,-32.583778,11.953735,,,,,,,
1504281851.194894,-1.977180,0.676430,-0.487330,0.218323,-0.378565,-0.425311,-0.716301,-0.626013,0.308252,0.250100,-0.361337,-0.309214,-33.672905,-32.957619,12.557861,,,,,,,
1504281851.204904,-1.982336,0.678976,-0.484051,0.109675,-0.277634,-0.299724,-0.713240,-0.627996,0.311303,0.236143,-0.387339,-0.315225,-33.672905,-32.957619,12.557861,,,,,,,
1504281851.214913,-1.985347,0.680674,-0.482344,0.041648,-0.173830,-0.184745,-0.711322,-0.629317,0.313019,0.199435,-0.425950,-0.345856,-33.297493,-33.031242,12.709351,,,,,,,
1504281851.224923,-1.987610,0.681869,-0.481192,0.036223,-0.157847,-0.141019,-0.709924,-0.630245,0.314323,0.180780,-0.433979,-0.335639,-33.297493,-33.031242,12.709351,,,,,,,
1504281851.234933,-1.990450,0.682814,-0.479813,0.065603,-0.210319,-0.125932,-0.708484,-0.630979,0.316095,0.218097,-0.410479,-0.281336,-33.297310,-33.106239,12.709900,,,,,,,
1504281851.244943,-1.993708,0.683592,-0.478501,0.055558,-0.255009,-0.108792,-0.707003,-0.631582,0.318200,0.254656,-0.420755,-0.257653,-33.297310,-33.106239,12.709900,,,,,,,
1504281851.254953,-1.997479,0.684411,-0.477248,0.057256,-0.316816,-0.120422,-0.705326,-0.632217,0.320650,0.263615,-0.455399,-0.281953,-32.997047,-33.030479,13.010071,,,,,,,
1504281851.264962,-2.002524,0.685402,-0.475928,0.046587,-0.459503,-0.135132,-0.703130,-0.632985,0.323941,0.268255,-0.489772,-0.334653,-32.997047,-33.030479,13.010071,,,,,,,
1504281851.274972,-2.008726,0.686463,-0.475143,-0.006969,-0.605072,-0.112553,-0.700499,-0.633805,0.328011,0.280517,-0.495254,-0.367944,-32.545967,-33.328911,13.238464,,,,,,,
1504281851.284982,-2.015047,0.687521,-0.475822,-0.132725,-0.686145,-0.057123,-0.697806,-0.634623,0.332145,0.279899,-0.496389,-0.377235,-32.545967,-33.328911,13.238464,,,,,,,
1504281851.294992,-2.019356,0.688721,-0.479168,-0.340632,-0.614192,0.028849,-0.695682,-0.635550,0.334817,0.258288,-0.512048,-0.367975,-32.545891,-33.179512,13.537354,,,,,,,
1504281851.305001,-2.020640,0.689897,-0.485439,-0.528001,-0.500864,0.127593,-0.694578,-0.636458,0.335385,0.224149,-0.525194,-0.332822,-32.545891,-33.179512,13.537354,,,,,,,
1504281851.315011,-2.019765,0.691109,-0.493856,-0.670689,-0.430483,0.183794,-0.694175,-0.637392,0.334443,0.173683,-0.510527,-0.315033,-32.320030,-33.478645,13.615143,,,,,,,
1504281851.325021,-2.017257,0.692350,-0.503747,-0.756802,-0.362690,0.230491,-0.694298,-0.638348,0.332359,0.125847,-0.470310,-0.342582,-32.320030,-33.478645,13.615143,,,,,,,
1504281851.335031,-2.013506,0.693294,-0.514417,-0.787361,-0.283636,0.280467,-0.694995,-0.639074,0.329493,0.103381,-0.437830,-0.313746,-32.245476,-33.477715,13.315338,,,,,,,
1504281851.345040,-2.008509,0.693928,-0.525363,-0.785540,-0.170728,0.310158,-0.696266,-0.639562,0.325844,0.086433,-0.420924,-0.253167,-32.245476,-33.477715,13.315338,,,,,,,
1504281851.355050,-2.002304,0.693446,-0.536303,-0.723286,-0.053078,0.424271,-0.698554,-0.639192,0.321647,0.066520,-0.418945,-0.199272,-32.545692,-33.478767,13.164612,,,,,,,
1504281851.365060,-1.996302,0.691305,-0.546617,-0.602439,-0.071256,0.552600,-0.701717,-0.637543,0.318013,0.066433,-0.408386,-0.160206,-32.545692,-33.478767,13.164612,,,,,,,
1504281851.375070,-1.991078,0.687738,-0.556043,-0.487682,-0.074426,0.642467,-0.705440,-0.634791,0.315269,0.081539,-0.366369,-0.156593,-32.771263,-33.479027,12.789032,,,,,,,
1504281851.385080,-1.986305,0.683011,-0.564477,-0.374723,-0.048787,0.710931,-0.709675,-0.631131,0.313106,0.088901,-0.323077,-0.178386,-32.771263,-33.479027,12.789032,,,,,,,
1504281851.395089,-1.981941,0.677259,-0.571661,-0.246592,-0.005139,0.761244,-0.714350,-0.626659,0.311452,0.096476,-0.303639,-0.152867,-33.147163,-33.255272,12.561401,,,,,,,
1504281851.405099,-1.977751,0.670640,-0.577581,-0.134112,0.075944,0.800790,-0.719443,-0.621487,0.310090,0.101416,-0.269702,-0.138826,-33.147163,-33.255272,12.561401,,,,,,,
1504281851.415109,-1.973266,0.663203,-0.582148,-0.001010,0.194165,0.829632,-0.725059,-0.615644,0.308663,0.105689,-0.225360,-0.131463,-33.598518,-32.806984,12.406921,,,,,,,
1504281851.425119,-1.969074,0.655090,-0.584886,0.155333,0.264275,0.827644,-0.730926,-0.609231,0.307548,0.114333,-0.189750,-0.116248,-33.598518,-32.806984,12.406921,,,,,,,
1504281851.435128,-1.965896,0.646481,-0.585780,0.301519,0.260949,0.819364,-0.736713,-0.602381,0.307231,0.122928,-0.151586,-0.118220,-34.049980,-32.358559,12.177429,,,,,,,
1504281851.445138,-1.963913,0.637377,-0.585187,0.421749,0.222657,0.824977,-0.742356,-0.595090,0.307857,0.130097,-0.121921,-0.143688,-34.049980,-32.358559,12.177429,,,,,,,
1504281851.455148,-1.962912,0.627729,-0.583527,0.516333,0.189886,0.847614,-0.747935,-0.587308,0.309293,0.136988,-0.104953,-0.167509,-34.801323,-31.687372,12.395508,,,,,,,
1504281851.465158,-1.962785,0.617406,-0.580970,0.609739,0.150720,0.882002,-0.753537,-0.578922,0.311498,0.137738,-0.098828,-0.180700,-34.801323,-31.687372,12.395508,,,,,,,
1504281851.475167,-1.963535,0.606576,-0.577392,0.711934,0.123236,0.884362,-0.759051,-0.570057,0.314445,0.141574,-0.101848,-0.186958,-35.177864,-30.939508,12.613953,,,,,,,
1504281851.485166,-1.964693,0.595618,-0.572785,0.776491,0.174945,0.858765,-0.764409,-0.561020,0.317702,0.155843,-0.103744,-0.191649,-35.177864,-30.939508,12.613953,,,,,,,
1504281851.495176,-1.964518,0.584839,-0.567713,0.823823,0.333368,0.821209,-0.770005,-0.552065,0.319870,0.158555,-0.088453,-0.183456,-35.853355,-30.568140,12.909485,,,,,,,
1504281851.505186,-1.964232,0.574426,-0.561575,0.887373,0.360630,0.744418,-0.775364,-0.543353,0.321836,0.177021,-0.086987,-0.190030,-35.853355,-30.568140,12.909485,,,,,,,
1504281851.515195,-1.965140,0.564611,-0.554487,0.942506,0.260105,0.652894,-0.779958,-0.535087,0.324573,0.207662,-0.081338,-0.233722,-36.529976,-29.746775,13.201630,,,,,,,
1504281851.525205,-1.968291,0.555630,-0.546319,0.999192,0.066893,0.529514,-0.783331,-0.527478,0.328876,0.249914,-0.088092,-0.291355,-36.529976,-29.746775,13.201630,,,,,,,
1504281851.535184,-1.973558,0.547480,-0.537099,1.050963,-0.066617,0.417762,-0.785516,-0.520537,0.334671,0.301721,-0.120362,-0.340149,-36.756065,-28.998819,13.720459,,,,,,,
1504281851.545194,-1.979735,0.540113,-0.527038,1.091710,-0.106271,0.313298,-0.786932,-0.514233,0.341033,0.320272,-0.139881,-0.378447,-36.756065,-28.998819,13.720459,,,,,,,
1504281851.555204,-1.986180,0.533261,-0.516421,1.133578,-0.111881,0.252538,-0.787923,-0.508344,0.347511,0.325536,-0.177416,-0.366889,-37.056664,-28.401361,14.315216,,,,,,,
1504281851.565214,-1.992996,0.526270,-0.505530,1.134376,-0.144922,0.253665,-0.788758,-0.502312,0.354321,0.323243,-0.200966,-0.340603,-37.056664,-28.401361,14.315216,,,,,,,
1504281851.575224,-2.000397,0.519415,-0.495124,1.092000,-0.242605,0.250562,-0.789226,-0.496373,0.361575,0.301967,-0.171657,-0.310107,-37.206245,-28.028833,15.212036,,,,,,,
1504281851.585233,-2.008543,0.512626,-0.485143,1.066561,-0.356412,0.248583,-0.789289,-0.490467,0.369411,0.295972,-0.133526,-0.327022,-37.206245,-28.028833,15.212036,,,,,,,
1504281851.595243,-2.018268,0.506371,-0.475309,1.032389,-0.541465,0.171998,-0.788410,-0.485007,0.378390,0.317798,-0.169321,-0.363208,-37.281700,-27.580057,15.658508,,,,,,,
1504281851.605253,-2.029496,0.501458,-0.465422,0.980903,-0.668758,0.022697,-0.786238,-0.480705,0.388268,0.356444,-0.185052,-0.397454,-37.281700,-27.580057,15.658508,,,,,,,
1504281851.615263,-2.040991,0.498297,-0.455290,0.916940,-0.645658,-0.165318,-0.783074,-0.477931,0.397967,0.387292,-0.181920,-0.430392,-37.430763,-27.282984,16.780914,,,,,,,
1504281851.625272,-2.049497,0.497567,-0.446141,0.697347,-0.331444,-0.343441,-0.779970,-0.477289,0.404774,0.399797,-0.177191,-0.420109,-37.430763,-27.282984,16.780914,,,,,,,
1504281851.635282,-2.053108,0.499052,-0.438651,0.445396,0.107653,-0.465269,-0.777875,-0.478593,0.407258,0.386197,-0.199950,-0.392167,-36.979408,-27.282755,17.682007,,,,,,,
1504281851.645292,-2.051987,0.502766,-0.433120,0.200113,0.448657,-0.583709,-0.776749,-0.481852,0.405561,0.316880,-0.250143,-0.410291,-36.979408,-27.282755,17.682007,,,,,,,
1504281851.655302,-2.048346,0.508390,-0.429040,0.014957,0.578163,-0.688864,-0.775802,-0.486771,0.401478,0.277420,-0.259292,-0.423328,-36.754372,-27.431299,17.458679,,,,,,,
1504281851.665311,-2.045889,0.514833,-0.424693,0.080038,0.398682,-0.762085,-0.773981,-0.492389,0.398128,0.287272,-0.249203,-0.433116,-36.754372,-27.431299,17.458679,,,,,,,
1504281851.675321,-2.045566,0.521776,-0.419806,0.044902,0.233871,-0.826967,-0.771050,-0.498421,0.396305,0.311059,-0.241066,-0.415333,-36.827904,-28.106333,17.313568,,,,,,,
1504281851.685331,-2.045814,0.529725,-0.415294,-0.035932,0.217568,-0.903931,-0.767405,-0.505296,0.394672,0.313471,-0.258589,-0.281772,-36.827904,-28.106333,17.313568,,,,,,,
1504281851.695341,-2.044738,0.538491,-0.410169,0.005748,0.427257,-1.009902,-0.763858,-0.512841,0.391810,0.301257,-0.236808,-0.282175,-36.227150,-28.403635,17.317291,,,,,,,
1504281851.705350,-2.042541,0.547948,-0.403426,0.100671,0.612020,-1.134949,-0.760363,-0.520937,0.387909,0.271426,-0.214811,-0.270919,-36.227150,-28.403635,17.317291,,,,,,,
1504281851.715360,-2.040498,0.557881,-0.394996,0.217668,0.643119,-1.225530,-0.756502,-0.529389,0.383994,0.245257,-0.214034,-0.172751,-35.701103,-29.000681,17.023102,,,,,,,
1504281851.725370,-2.040588,0.567704,-0.385107,0.331578,0.455738,-1.261294,-0.751794,-0.537698,0.381689,0.238214,-0.197150,-0.162725,-35.701103,-29.000681,17.023102,,,,,,,
1504281851.735380,-2.044378,0.576733,-0.374023,0.445049,0.135068,-1.208229,-0.745991,-0.545288,0.382306,0.250691,-0.210174,-0.206738,-35.174568,-29.747873,16.805023,,,,,,,
1504281851.745390,-2.051733,0.584633,-0.362613,0.486781,-0.189319,-1.110451,-0.739317,-0.551893,0.385777,0.241438,-0.256182,-0.270314,-35.174568,-29.747873,16.805023,,,,,,,
1504281851.755399,-2.061449,0.591402,-0.351622,0.491944,-0.405798,-0.994781,-0.732222,-0.557525,0.391173,0.200347,-0.298539,-0.295866,-34.573143,-30.270334,16.885468,,,,,,,
1504281851.765409,-2.071986,0.597063,-0.340776,0.530580,-0.453099,-0.901767,-0.725281,-0.562216,0.397343,0.164627,-0.312754,-0.313023,-34.573143,-30.270334,16.885468,,,,,,,
1504281851.775419,-2.082934,0.601520,-0.329850,0.584216,-0.487745,-0.801277,-0.718695,-0.565897,0.404027,0.132620,-0.323294,-0.302144,-33.820961,-30.867853,17.341797,,,,,,,
1504281851.785429,-2.095285,0.604900,-0.318796,0.634673,-0.670453,-0.728284,-0.711991,-0.568680,0.411913,0.127411,-0.352203,-0.300112,-33.820961,-30.867853,17.341797,,,,,,,
1504281851.795438,-2.110676,0.607521,-0.307968,0.618780,-1.013518,-0.658326,-0.704286,-0.570834,0.422054,0.143785,-0.398679,-0.347302,-33.369682,-31.017038,17.944061,,,,,,,
1504281851.805448,-2.129421,0.609754,-0.298758,0.486745,-1.451562,-0.557446,-0.695168,-0.572666,0.434505,0.194848,-0.425350,-0.436916,-33.369682,-31.017038,17.944061,,,,,,,
1504281851.815458,-2.150564,0.612025,-0.292085,0.268883,-1.818564,-0.462178,-0.684737,-0.574526,0.448391,0.213317,-0.445325,-0.520839,-32.318901,-30.789103,18.844971,,,,,,,
1504281851.825468,-2.172044,0.614955,-0.289216,-0.051197,-2.008929,-0.339645,-0.673558,-0.576921,0.462040,0.192113,-0.459120,-0.540119,-32.318901,-30.789103,18.844971,,,,,,,
1504281851.835477,-2.191535,0.618081,-0.290196,-0.300476,-1.984681,-0.163999,-0.662954,-0.579472,0.474029,0.178122,-0.468730,-0.488723,-31.641272,-31.163309,19.974487,,,,,,,
1504281851.845487,-2.207761,0.620666,-0.294343,-0.461217,-1.812006,0.039292,-0.653970,-0.581577,0.483830,0.159509,-0.441159,-0.446645,-31.641272,-31.163309,19.974487,,,,,,,
1504281851.855497,-2.220154,0.622980,-0.301299,-0.638340,-1.589054,0.184826,-0.646850,-0.583458,0.491083,0.147582,-0.396751,-0.389947,-30.739813,-31.385462,20.578400,,,,,,,
1504281851.865507,-2.228673,0.625632,-0.310695,-0.803182,-1.333111,0.273751,-0.641417,-0.585609,0.495627,0.139769,-0.392281,-0.346000,-30.739813,-31.385462,20.578400,,,,,,,
1504281851.875517,-2.233689,0.628290,-0.321597,-0.871973,-1.083271,0.347909,-0.637693,-0.587762,0.497879,0.148496,-0.416754,-0.328781,-29.988043,-31.683435,21.257507,,,,,,,
1504281851.885526,-2.236223,0.630881,-0.333508,-0.930636,-0.912350,0.404079,-0.635229,-0.589857,0.498551,0.149343,-0.446871,-0.294724,-29.988043,-31.683435,21.257507,,,,,,,
1504281851.895536,-2.236029,0.633188,-0.346462,-0.970819,-0.681936,0.486860,-0.634253,-0.591718,0.497587,0.150672,-0.467547,-0.278715,-29.537603,-31.906275,21.185333,,,,,,,
1504281851.905546,-2.233015,0.635218,-0.360096,-0.990503,-0.453771,0.520581,-0.634802,-0.593353,0.494933,0.090338,-0.456665,-0.199584,-29.537603,-31.906275,21.185333,,,,,,,
1504281851.915556,-2.228452,0.637154,-0.373324,-0.939983,-0.294312,0.487297,-0.636143,-0.594910,0.491328,0.091679,-0.455108,-0.195979,-29.762930,-32.131081,20.586426,,,,,,,
1504281851.925565,-2.223780,0.639019,-0.385260,-0.846355,-0.237468,0.416911,-0.637549,-0.596408,0.487676,0.141547,-0.388608,-0.172506,-29.762930,-32.131081,20.586426,,,,,,,
1504281851.935545,-2.220623,0.640465,-0.395375,-0.690953,-0.314355,0.368215,-0.638399,-0.597568,0.485139,0.200639,-0.325970,-0.150925,-29.987783,-32.281792,20.437012,,,,,,,
1504281851.945554,-2.220322,0.640865,-0.403622,-0.502724,-0.523700,0.371045,-0.638354,-0.597889,0.484802,0.236178,-0.321484,-0.139557,-29.987783,-32.281792,20.437012,,,,,,,
1504281851.955564,-2.223640,0.640088,-0.410248,-0.335315,-0.793626,0.386755,-0.637111,-0.597266,0.487199,0.227809,-0.319207,-0.150011,-30.063421,-32.206535,20.136230,,,,,,,
1504281851.965574,-2.229917,0.638395,-0.415556,-0.205614,-0.981181,0.393715,-0.634838,-0.595907,0.491808,0.219158,-0.322077,-0.179079,-30.063421,-32.206535,20.136230,,,,,,,
1504281851.975584,-2.237290,0.636240,-0.419963,-0.129850,-0.984993,0.385314,-0.632203,-0.594176,0.497267,0.222566,-0.318865,-0.202330,-29.987783,-32.281792,20.437012,,,,,,,
1504281851.985593,-2.243522,0.633629,-0.423719,-0.057914,-0.788460,0.395766,-0.630303,-0.592073,0.502163,0.218896,-0.307799,-0.192211,-29.987783,-32.281792,20.437012,,,,,,,
1504281851.995603,-2.247789,0.630708,-0.426646,0.014652,-0.541802,0.360232,-0.629500,-0.589717,0.505929,0.180510,-0.292729,-0.153573,-29.763800,-31.830927,20.509155,,,,,,,
1504281852.005613,-2.250853,0.627937,-0.428350,0.084709,-0.368605,0.282128,-0.629215,-0.587477,0.508881,0.140324,-0.271456,-0.130905,-29.763800,-31.830927,20.509155,,,,,,,
1504281852.015623,-2.253432,0.625340,-0.428892,0.142380,-0.272037,0.211609,-0.629082,-0.585373,0.511463,0.166833,-0.250672,-0.158588,-29.763159,-31.906534,20.809753,,,,,,,
1504281852.025632,-2.256221,0.623053,-0.428390,0.182382,-0.243492,0.130499,-0.628688,-0.583518,0.514061,0.201244,-0.263086,-0.212120,-29.763159,-31.906534,20.809753,,,,,,,
1504281852.035642,-2.259050,0.621278,-0.426995,0.207837,-0.182873,0.043976,-0.628030,-0.582075,0.516495,0.190820,-0.287905,-0.255570,-29.763845,-31.457132,21.106354,,,,,,,
1504281852.045652,-2.261097,0.620061,-0.424871,0.206164,-0.041052,-0.035264,-0.627518,-0.581085,0.518230,0.173782,-0.302003,-0.281764,-29.763845,-31.457132,21.106354,,,,,,,
1504281852.055662,-2.261625,0.619583,-0.422507,0.169414,0.126617,-0.099668,-0.627458,-0.580696,0.518738,0.166749,-0.301872,-0.288651,-29.913382,-31.458399,21.406036,,,,,,,
1504281852.065672,-2.260600,0.619793,-0.420447,0.093736,0.251944,-0.127772,-0.627895,-0.580866,0.518017,0.164333,-0.296453,-0.288968,-29.913382,-31.458399,21.406036,,,,,,,
1504281852.075681,-2.258090,0.620762,-0.419179,-0.007836,0.348702,-0.144130,-0.628758,-0.581655,0.516082,0.170277,-0.291728,-0.305526,-29.763388,-31.457727,21.406403,,,,,,,
1504281852.085691,-2.254265,0.622465,-0.418727,-0.104210,0.428367,-0.160449,-0.629958,-0.583040,0.513047,0.179793,-0.288847,-0.318940,-29.763388,-31.457727,21.406403,,,,,,,
1504281852.095701,-2.249726,0.624789,-0.418749,-0.158262,0.457610,-0.186212,-0.631224,-0.584926,0.509330,0.194914,-0.286183,-0.307136,-29.988501,-31.458597,21.330841,,,,,,,
1504281852.105711,-2.245323,0.627325,-0.418531,-0.133661,0.446782,-0.216037,-0.632300,-0.586981,0.505618,0.215964,-0.294107,-0.289249,-29.988501,-31.458597,21.330841,,,,,,,
1504281852.115720,-2.241655,0.629760,-0.417641,-0.081565,0.409082,-0.239363,-0.633029,-0.588951,0.502405,0.224780,-0.310280,-0.272730,-29.988943,-31.682245,20.657501,,,,,,,
1504281852.125730,-2.238599,0.631979,-0.416355,-0.047745,0.371503,-0.234969,-0.633534,-0.590743,0.499658,0.208927,-0.331834,-0.252939,-29.839544,-31.531275,20.506714,,,,,,,
1504281852.135740,-2.235478,0.634024,-0.415183,-0.057323,0.388608,-0.212600,-0.634138,-0.592391,0.496933,0.188551,-0.354218,-0.245361,-29.839544,-31.531275,20.506714,,,,,,,
1504281852.145750,-2.231421,0.635918,-0.414396,-0.067435,0.478169,-0.180753,-0.635262,-0.593916,0.493666,0.174858,-0.383135,-0.242552,-30.139135,-31.832178,20.283264,,,,,,,
1504281852.155759,-2.226249,0.637597,-0.413818,-0.065693,0.577231,-0.157442,-0.637015,-0.595266,0.489765,0.170004,-0.410334,-0.238072,-30.139135,-31.832178,20.283264,,,,,,,
1504281852.165769,-2.220075,0.639286,-0.413206,-0.061635,0.678439,-0.167220,-0.639225,-0.596623,0.485214,0.172214,-0.408977,-0.233520,-30.213903,-32.057060,20.059753,,,,,,,
1504281852.175779,-2.212788,0.641140,-0.412625,-0.078807,0.792611,-0.178125,-0.641857,-0.598109,0.479881,0.168880,-0.412038,-0.229392,-30.213903,-32.057060,20.059753,,,,,,,
1504281852.185789,-2.204121,0.643180,-0.412140,-0.091521,0.929126,-0.191197,-0.645007,-0.599743,0.473576,0.167346,-0.414539,-0.223668,-30.364538,-31.982141,19.758820,,,,,,,
1504281852.195798,-2.194305,0.645501,-0.411333,-0.078492,1.060139,-0.240506,-0.648492,-0.601599,0.466408,0.162713,-0.420679,-0.214440,-30.364538,-31.982141,19.758820,,,,,,,
1504281852.205808,-2.183715,0.648018,-0.409335,0.012777,1.218242,-0.317479,-0.652155,-0.603607,0.458642,0.161600,-0.423904,-0.189340,-30.515188,-32.131477,19.084534,,,,,,,
1504281852.215818,-2.173089,0.650371,-0.405209,0.178442,1.337374,-0.398525,-0.655819,-0.605482,0.450880,0.178082,-0.435091,-0.186842,-30.515188,-32.131477,19.084534,,,,,,,
1504281852.225828,-2.163564,0.652246,-0.399356,0.303937,1.275620,-0.416345,-0.659141,-0.606973,0.443979,0.187019,-0.451285,-0.185373,-31.040136,-32.507637,18.486053,,,,,,,
1504281852.235838,-2.156150,0.653272,-0.393404,0.339904,1.035455,-0.311253,-0.661895,-0.607788,0.438735,0.159072,-0.482834,-0.230819,-31.040136,-32.507637,18.486053,,,,,,,
1504281852.245847,-2.150713,0.652673,-0.389037,0.312818,0.728543,-0.078065,-0.664576,-0.607312,0.435329,0.122477,-0.509250,-0.324383,-31.116232,-32.207512,18.258606,,,,,,,
1504281852.255857,-2.146771,0.650237,-0.387516,0.205369,0.414774,0.212635,-0.667525,-0.605375,0.433511,0.087721,-0.521990,-0.387155,-31.116232,-32.207512,18.258606,,,,,,,
1504281852.265867,-2.143595,0.646064,-0.389574,0.052192,0.126944,0.514952,-0.671016,-0.602048,0.432754,0.045436,-0.536990,-0.419601,-31.642279,-31.834726,18.179535,,,,,,,
1504281852.275877,-2.141043,0.639901,-0.394210,0.003352,-0.071142,0.791674,-0.675228,-0.597116,0.433035,0.024517,-0.534903,-0.440329,-31.642279,-31.834726,18.179535,,,,,,,
1504281852.285886,-2.138034,0.631569,-0.401988,-0.106050,-0.201657,1.125812,-0.680701,-0.590412,0.433659,0.020224,-0.507870,-0.452428,-31.868002,-31.685297,17.952850,,,,,,,
1504281852.295896,-2.133648,0.621275,-0.412843,-0.243007,-0.208281,1.407380,-0.687700,-0.582073,0.433890,0.038896,-0.486622,-0.447897,-31.868002,-31.685297,17.952850,,,,,,,
1504281852.305906,-2.127684,0.610101,-0.426171,-0.381972,-0.150810,1.552205,-0.695754,-0.572950,0.433192,0.069655,-0.483248,-0.445979,-32.694695,-30.789743,18.319061,,,,,,,
1504281852.315916,-2.120081,0.599191,-0.441111,-0.499725,-0.052892,1.573176,-0.704317,-0.563975,0.431127,0.101518,-0.459280,-0.417318,-32.694695,-30.789743,18.319061,,,,,,,
1504281852.325925,-2.110309,0.588975,-0.456439,-0.573264,0.183279,1.507521,-0.713402,-0.555509,0.427162,0.140892,-0.440295,-0.413505,-33.821449,-30.493448,17.639008,,,,,,,
1504281852.335905,-2.097509,0.580428,-0.472135,-0.726981,0.479873,1.356228,-0.722889,-0.548382,0.420367,0.180058,-0.374790,-0.399203,-33.821449,-30.493448,17.639008,,,,,,,
1504281852.345914,-2.080129,0.574314,-0.489190,-1.011923,0.907557,1.199139,-0.732999,-0.543259,0.409368,0.211621,-0.301223,-0.366780,-34.874413,-29.671976,17.030212,,,,,,,
1504281852.355924,-2.058281,0.570591,-0.507867,-1.267606,1.252958,1.033707,-0.743549,-0.540130,0.394201,0.219898,-0.236848,-0.391012,-34.874413,-29.671976,17.030212,,,,,,,
1504281852.365934,-2.032655,0.569398,-0.528576,-1.568869,1.497509,0.860902,-0.753982,-0.539125,0.375307,0.215270,-0.163252,-0.441652,-36.001823,-29.524347,15.676270,,,,,,,
1504281852.375944,-2.004408,0.570332,-0.551142,-1.801628,1.631748,0.680938,-0.763824,-0.539912,0.353650,0.233276,-0.112707,-0.424848,-36.001823,-29.524347,15.676270,,,,,,,
1504281852.385954,-1.974483,0.573232,-0.574754,-1.979253,1.743120,0.534200,-0.772620,-0.542350,0.330022,0.261985,-0.065453,-0.377873,-36.904366,-29.674494,13.725128,,,,,,,
1504281852.395963,-1.942951,0.575973,-0.598985,-1.964387,1.841077,0.491357,-0.781253,-0.544651,0.304957,0.280246,-0.019039,-0.313624,-36.904366,-29.674494,13.725128,,,,,,,
1504281852.405973,-1.912756,0.579484,-0.621639,-1.882896,1.758576,0.278163,-0.788298,-0.547592,0.280589,0.322660,-0.005341,-0.219035,-37.807182,-30.123316,11.101227,,,,,,,
1504281852.415983,-1.884766,0.583756,-0.642036,-1.682357,1.642025,0.100460,-0.793609,-0.551161,0.257693,0.337539,0.125624,-0.163500,-37.807182,-30.123316,11.101227,,,,,,,
1504281852.425993,-1.860727,0.588106,-0.658288,-1.332076,1.457076,-0.046976,-0.797269,-0.554787,0.237855,0.362698,0.176170,-0.102280,-37.809624,-30.269571,9.227325,,,,,,,
1504281852.436002,-1.840997,0.592502,-0.670264,-0.989557,1.245534,-0.178367,-0.799448,-0.558438,0.221427,0.384851,0.180386,-0.031867,-37.809624,-30.269571,9.227325,,,,,,,
1504281852.446012,-1.826542,0.596868,-0.677647,-0.602915,0.961146,-0.288206,-0.800198,-0.562055,0.209229,0.395703,0.179517,0.022552,-38.261467,-30.343912,7.876770,,,,,,,
1504281852.456022,-1.817370,0.600796,-0.680135,-0.195965,0.719151,-0.337242,-0.799937,-0.565300,0.201340,0.396448,0.150138,0.059905,-38.261467,-30.343912,7.876770,,,,,,,
1504281852.466032,-1.812621,0.603836,-0.677948,0.199704,0.566705,-0.334152,-0.799212,-0.567805,0.197127,0.377718,0.114649,0.094087,-38.337303,-30.417902,7.202148,,,,,,,
1504281852.476041,-1.811473,0.605533,-0.671245,0.591319,0.472848,-0.279938,-0.798500,-0.569201,0.195979,0.343407,0.086809,0.137105,-38.337303,-30.417902,7.202148,,,,,,,
1504281852.486030,-1.813720,0.605603,-0.660311,0.959227,0.366371,-0.199058,-0.798019,-0.569258,0.197763,0.311951,0.067167,0.170111,-38.187492,-30.342234,7.201935,,,,,,,
1504281852.496040,-1.819791,0.603805,-0.645763,1.279251,0.161156,-0.088199,-0.797795,-0.567779,0.202857,0.301762,0.041442,0.180002,-38.187492,-30.342234,7.201935,,,,,,,
1504281852.506050,-1.829895,0.600152,-0.628400,1.539176,-0.089382,0.020501,-0.797704,-0.564768,0.211437,0.309835,0.031153,0.148686,-38.112038,-30.118235,7.875458,,,,,,,
1504281852.516059,-1.844029,0.594679,-0.608253,1.821535,-0.347546,0.111107,-0.797600,-0.560243,0.223521,0.327004,0.016343,0.095433,-38.112038,-30.118235,7.875458,,,,,,,
1504281852.526069,-1.862075,0.587662,-0.585258,2.091640,-0.570388,0.148260,-0.797183,-0.554417,0.239000,0.334751,-0.009991,0.063780,-37.885872,-29.819757,9.148804,,,,,,,
1504281852.536079,-1.882447,0.579410,-0.559853,2.323533,-0.649035,0.162677,-0.796477,-0.547530,0.256583,0.332656,-0.064897,0.031747,-37.885872,-29.819757,9.148804,,,,,,,
1504281852.546089,-1.903933,0.570018,-0.532633,2.501482,-0.675015,0.167301,-0.795605,-0.539647,0.275306,0.320736,-0.149913,0.015527,-38.108574,-29.749063,10.797699,,,,,,,
1504281852.556099,-1.925779,0.559943,-0.504459,2.597690,-0.672576,0.134374,-0.794459,-0.531138,0.294495,0.312114,-0.241903,-0.005478,-38.108574,-29.749063,10.797699,,,,,,,
1504281852.566108,-1.947592,0.549575,-0.475804,2.653440,-0.670851,0.083232,-0.792925,-0.522325,0.313762,0.316210,-0.333647,-0.064891,-37.582787,-28.850733,12.817261,,,,,,,
1504281852.576118,-1.969119,0.539181,-0.447639,2.594714,-0.702292,0.041557,-0.790949,-0.513433,0.332845,0.319513,-0.412165,-0.138204,-37.582787,-28.850733,12.817261,,,,,,,
1504281852.586128,-1.989879,0.529365,-0.421790,2.362699,-0.780273,0.014607,-0.788435,-0.504985,0.351226,0.320799,-0.458760,-0.239867,-37.280983,-28.403269,14.764709,,,,,,,
1504281852.596138,-2.009281,0.520283,-0.399521,2.044225,-0.838402,0.026967,-0.785593,-0.497125,0.368388,0.323832,-0.474402,-0.363033,-37.280983,-28.403269,14.764709,,,,,,,
1504281852.606147,-2.027469,0.512508,-0.381326,1.661475,-0.948184,0.008351,-0.782209,-0.490364,0.384308,0.334928,-0.483818,-0.469589,-37.205193,-27.955469,16.036499,,,,,,,
1504281852.616157,-2.044318,0.506911,-0.367365,1.231370,-1.013822,-0.071266,-0.778053,-0.485479,0.398678,0.360130,-0.489054,-0.551495,-37.205193,-27.955469,16.036499,,,,,,,
1504281852.626167,-2.059539,0.504327,-0.356723,0.849416,-0.992372,-0.253424,-0.773000,-0.483218,0.411061,0.399938,-0.475720,-0.616109,-36.604042,-27.431070,17.684052,,,,,,,
1504281852.636177,-2.072070,0.505680,-0.348494,0.473711,-0.786519,-0.537300,-0.767214,-0.484402,0.420401,0.443743,-0.458102,-0.620535,-36.604042,-27.431070,17.684052,,,,,,,
1504281852.646186,-2.079955,0.511607,-0.342343,0.097553,-0.393079,-0.857799,-0.761355,-0.489579,0.425030,0.474627,-0.431899,-0.579754,-35.852242,-27.654337,18.512634,,,,,,,
1504281852.656196,-2.084092,0.521487,-0.337365,-0.180369,-0.095333,-1.133128,-0.755340,-0.498170,0.425780,0.458800,-0.383223,-0.484099,-35.852242,-27.654337,18.512634,,,,,,,
1504281852.666206,-2.085248,0.534471,-0.334265,-0.469492,0.072386,-1.296170,-0.749152,-0.509386,0.423434,0.452613,-0.372007,-0.481753,-35.251152,-28.176340,18.368073,,,,,,,
1504281852.676216,-2.084664,0.549426,-0.332725,-0.665814,0.151881,-1.382042,-0.742682,-0.522198,0.419205,0.388373,-0.375202,-0.470276,-35.251152,-28.176340,18.368073,,,,,,,
1504281852.686225,-2.083887,0.565354,-0.332134,-0.751538,0.084424,-1.416229,-0.735667,-0.535715,0.414492,0.309886,-0.377005,-0.471926,-34.649879,-28.997614,17.850677,,,,,,,
1504281852.696235,-2.083621,0.581432,-0.332267,-0.814308,-0.006734,-1.384155,-0.728177,-0.549221,0.410017,0.262555,-0.381413,-0.421568,-34.649879,-28.997614,17.850677,,,,,,,
1504281852.706245,-2.084487,0.597029,-0.332659,-0.778336,-0.143485,-1.328346,-0.720273,-0.562188,0.406388,0.214658,-0.379615,-0.373856,-33.822655,-30.192850,17.336731,,,,,,,
1504281852.716255,-2.086854,0.611903,-0.332651,-0.711230,-0.263430,-1.284255,-0.711957,-0.574427,0.403921,0.183880,-0.357596,-0.320058,-33.822655,-30.192850,17.336731,,,,,,,
1504281852.726234,-2.089532,0.625996,-0.332065,-0.636299,-0.200166,-1.231934,-0.703772,-0.585905,0.401772,0.191137,-0.317553,-0.241890,-32.920845,-31.088221,17.045715,,,,,,,
1504281852.736244,-2.090343,0.638925,-0.330982,-0.537648,0.051475,-1.141477,-0.696811,-0.596333,0.398548,0.168186,-0.298854,-0.147679,-32.920845,-31.088221,17.045715,,,,,,,
1504281852.746254,-2.089767,0.649995,-0.328833,-0.339723,0.206342,-1.001578,-0.691266,-0.605182,0.394849,0.116162,-0.284588,-0.044873,-32.319130,-31.910074,16.828400,,,,,,,
1504281852.756263,-2.089982,0.657579,-0.325467,-0.087556,0.168795,-0.707539,-0.687177,-0.611202,0.392708,0.068296,-0.277714,-0.012826,-32.319130,-31.910074,16.828400,,,,,,,
1504281852.766273,-2.091119,0.661453,-0.322397,0.047294,0.028809,-0.372962,-0.684670,-0.614264,0.392309,-0.022574,-0.380152,-0.018637,-32.093712,-32.208611,16.606201,,,,,,,
1504281852.776283,-2.094347,0.662259,-0.319694,0.183836,-0.217666,-0.120383,-0.682971,-0.614900,0.394270,-0.114468,-0.452086,-0.038999,-32.093712,-32.208611,16.606201,,,,,,,
1504281852.786293,-2.099587,0.660972,-0.316470,0.321829,-0.358531,0.010327,-0.681578,-0.613885,0.398242,-0.106538,-0.405296,-0.149387,-31.717993,-32.357384,16.833252,,,,,,,
1504281852.796302,-2.106674,0.658329,-0.311909,0.478837,-0.446179,0.050248,-0.680132,-0.611796,0.403889,-0.055052,-0.393011,-0.202184,-31.717993,-32.357384,16.833252,,,,,,,
1504281852.806312,-2.114065,0.655318,-0.306443,0.544658,-0.378482,0.010748,-0.678702,-0.609411,0.409855,0.029227,-0.340403,-0.186924,-31.266195,-32.806252,17.287750,,,,,,,
1504281852.816322,-2.120961,0.652157,-0.299554,0.658105,-0.226992,-0.030951,-0.677498,-0.606902,0.415531,0.087365,-0.280275,-0.160145,-31.266195,-32.806252,17.287750,,,,,,,
1504281852.826332,-2.125688,0.648817,-0.291274,0.762398,0.115313,-0.070868,-0.677245,-0.604244,0.419795,0.087951,-0.288822,-0.123149,-31.191717,-32.281960,17.808990,,,,,,,
1504281852.836341,-2.128291,0.645282,-0.282067,0.819782,0.343960,-0.086115,-0.677959,-0.601424,0.422683,0.087215,-0.350251,-0.099777,-31.191717,-32.281960,17.808990,,,,,,,
1504281852.846351,-2.129124,0.641243,-0.273074,0.821603,0.483464,-0.013774,-0.679661,-0.598192,0.424532,0.104298,-0.421080,-0.091066,-31.342367,-31.982782,17.881348,,,,,,,
1504281852.856361,-2.129375,0.636225,-0.265244,0.788216,0.401536,0.131479,-0.682092,-0.594163,0.426288,0.144799,-0.465361,-0.141299,-31.342367,-31.982782,17.881348,,,,,,,
1504281852.866371,-2.130597,0.630138,-0.259393,0.699975,0.146343,0.301493,-0.684622,-0.589256,0.429033,0.174460,-0.477043,-0.212053,-31.566946,-31.834833,18.404724,,,,,,,
1504281852.876381,-2.133370,0.623626,-0.255811,0.538219,-0.114608,0.441503,-0.686661,-0.583983,0.432968,0.191483,-0.482134,-0.326156,-31.566946,-31.834833,18.404724,,,,,,,
1504281852.886390,-2.136152,0.617053,-0.255345,0.334689,-0.277155,0.557783,-0.688680,-0.578635,0.436923,0.270574,-0.452936,-0.409931,-31.867773,-31.237085,18.849457,,,,,,,
1504281852.896400,-2.136972,0.610909,-0.256982,0.183114,-0.124637,0.602083,-0.691309,-0.573612,0.439387,0.282435,-0.424633,-0.442850,-31.867773,-31.237085,18.849457,,,,,,,
1504281852.906410,-2.135124,0.605235,-0.260073,0.055400,0.056488,0.614351,-0.694859,-0.568955,0.439842,0.200077,-0.328963,-0.302849,-32.243904,-30.788767,18.845154,,,,,,,
1504281852.916420,-2.130231,0.600296,-0.264719,-0.085985,0.261172,0.624419,-0.699376,-0.564887,0.437923,0.204594,-0.333032,-0.300929,-32.243904,-30.788767,18.845154,,,,,,,
1504281852.926429,-2.123647,0.595670,-0.270275,-0.159901,0.364067,0.634783,-0.704460,-0.561063,0.434676,0.167351,-0.279391,-0.263808,-32.919868,-30.491510,18.691254,,,,,,,
1504281852.936439,-2.117268,0.590984,-0.275572,-0.108951,0.325296,0.625333,-0.709457,-0.557179,0.431535,0.160171,-0.216152,-0.228639,-32.919868,-30.491510,18.691254,,,,,,,
1504281852.946449,-2.112028,0.585736,-0.279707,0.015463,0.273122,0.625641,-0.714205,-0.552813,0.429312,0.162890,-0.191038,-0.194266,-33.370811,-30.118525,18.687317,,,,,,,
1504281852.956459,-2.108667,0.579815,-0.282007,0.179238,0.186558,0.594055,-0.718442,-0.547869,0.428579,0.199384,-0.223188,-0.146292,-33.370811,-30.118525,18.687317,,,,,,,
1504281852.966468,-2.107690,0.573922,-0.282256,0.315211,0.041700,0.481402,-0.721623,-0.542930,0.429520,0.261387,-0.265801,-0.124802,-33.597176,-29.669230,18.533386,,,,,,,
1504281852.976478,-2.109752,0.569102,-0.280107,0.422643,-0.136911,0.260951,-0.722973,-0.538876,0.432346,0.347012,-0.254292,-0.154285,-33.597176,-29.669230,18.533386,,,,,,,
1504281852.986488,-2.114352,0.566498,-0.275882,0.437116,-0.249670,-0.040900,-0.722175,-0.536680,0.436391,0.432380,-0.207247,-0.202916,-33.447777,-29.294001,18.755951,,,,,,,
1504281852.996498,-2.119607,0.566932,-0.269893,0.405298,-0.171265,-0.381595,-0.719673,-0.537046,0.440059,0.487450,-0.105837,-0.248225,-33.447777,-29.294001,18.755951,,,,,,,
1504281853.006507,-2.123239,0.569901,-0.261986,0.417884,0.155006,-0.671414,-0.716709,-0.539549,0.441831,0.484608,-0.050874,-0.245572,-33.446938,-29.444605,19.057068,,,,,,,
1504281853.016517,-2.124221,0.574907,-0.252014,0.466947,0.531018,-0.921765,-0.713969,-0.543757,0.441109,0.411036,-0.021017,-0.177300,-33.446938,-29.444605,19.057068,,,,,,,
1504281853.026527,-2.123128,0.580604,-0.240166,0.568904,0.814790,-1.014952,-0.711802,-0.548529,0.438696,0.328592,-0.010125,-0.089483,-33.446938,-29.444605,19.057068,,,,,,,
1504281853.036537,-2.122349,0.585415,-0.227346,0.687435,0.747691,-0.946321,-0.709887,-0.552546,0.436754,0.261034,-0.082159,-0.036958,-33.146187,-29.743265,19.060059,,,,,,,
1504281853.046547,-2.124737,0.588673,-0.214389,0.759510,0.375058,-0.805709,-0.707307,-0.555258,0.437499,0.235872,-0.178278,-0.076552,-33.146187,-29.743265,19.060059,,,,,,,
1504281853.056556,-2.131427,0.590688,-0.201925,0.770097,-0.100402,-0.694910,-0.703416,-0.556932,0.441624,0.276292,-0.256453,-0.215123,-32.545296,-30.190256,18.914917,,,,,,,
1504281853.066566,-2.141976,0.592492,-0.190291,0.692162,-0.488734,-0.665540,-0.697872,-0.558430,0.448476,0.331127,-0.297008,-0.331502,-32.545296,-30.190256,18.914917,,,,,,,
1504281853.076576,-2.154456,0.594793,-0.179713,0.580610,-0.701991,-0.674964,-0.691146,-0.560337,0.456442,0.392410,-0.258282,-0.415502,-32.393715,-30.415934,19.592010,,,,,,,
1504281853.086586,-2.168121,0.598184,-0.170153,0.422786,-0.868983,-0.745392,-0.683270,-0.563143,0.464771,0.433025,-0.212248,-0.449711,-32.393715,-30.415934,19.592010,,,,,,,
1504281853.096595,-2.182942,0.603891,-0.161483,0.214411,-1.020527,-0.923742,-0.673665,-0.567850,0.472992,0.476201,-0.198218,-0.456207,-31.492666,-30.338541,20.418671,,,,,,,
1504281853.106575,-2.198243,0.611939,-0.152726,0.091597,-1.024638,-1.121417,-0.662629,-0.574456,0.480546,0.518784,-0.209846,-0.481171,-31.492666,-30.338541,20.418671,,,,,,,
1504281853.116584,-2.213425,0.622019,-0.143029,0.025178,-0.925832,-1.337321,-0.650588,-0.582677,0.487055,0.519470,-0.264338,-0.453516,-30.740896,-30.636515,21.097748,,,,,,,
1504281853.126594,-2.227658,0.634095,-0.131799,-0.013573,-0.707897,-1.561927,-0.637971,-0.592449,0.491932,0.509355,-0.291417,-0.374150,-30.740896,-30.636515,21.097748,,,,,,,
1504281853.136604,-2.241027,0.647602,-0.119381,-0.061888,-0.568821,-1.706355,-0.625009,-0.603276,0.495401,0.501596,-0.309596,-0.300378,-29.163549,-31.305323,21.556763,,,,,,,
1504281853.146614,-2.254679,0.661966,-0.106393,-0.110737,-0.588584,-1.784326,-0.611407,-0.614669,0.498360,0.479358,-0.326829,-0.254754,-29.163549,-31.305323,21.556763,,,,,,,
1504281853.156623,-2.269365,0.677312,-0.093250,-0.212382,-0.667595,-1.853744,-0.596729,-0.626701,0.501160,0.435977,-0.340234,-0.274292,-28.036291,-32.200279,21.566284,,,,,,,
1504281853.166633,-2.284288,0.693411,-0.080488,-0.316965,-0.675250,-1.861383,-0.581480,-0.639164,0.503339,0.393141,-0.331875,-0.299573,-28.036291,-32.200279,21.566284,,,,,,,
1504281853.176643,-2.297805,0.709545,-0.068224,-0.368176,-0.515033,-1.819058,-0.566844,-0.651489,0.504233,0.349757,-0.305725,-0.302328,-26.534262,-32.868980,21.800049,,,,,,,
1504281853.186653,-2.309326,0.725954,-0.057119,-0.513790,-0.406273,-1.756526,-0.553017,-0.663849,0.503465,0.280678,-0.290802,-0.269731,-26.534262,-32.868980,21.800049,,,,,,,
1504281853.196662,-2.319152,0.740687,-0.048987,-0.567620,-0.507438,-1.393524,-0.540817,-0.674795,0.502164,0.202773,-0.329249,-0.226759,-25.031759,-33.912086,21.736633,,,,,,,
1504281853.206672,-2.332047,0.751902,-0.038797,-0.074127,-0.665013,-1.331549,-0.528784,-0.683029,0.503844,0.033117,-0.402634,-0.199691,-25.031759,-33.912086,21.736633,,,,,,,
1504281853.216682,-2.345227,0.761257,-0.029644,-0.275983,-0.646597,-1.046935,-0.517507,-0.689832,0.506279,-0.051340,-0.414599,-0.155037,-23.755484,-34.506065,21.594269,,,,,,,
1504281853.226692,-2.353484,0.770019,-0.024003,-0.261763,-0.369824,-0.887288,-0.509005,-0.696149,0.506252,-0.152586,-0.488132,-0.108730,-23.755484,-34.506065,21.594269,,,,,,,
1504281853.236702,-2.360517,0.776360,-0.016835,-0.060830,-0.125438,-0.779563,-0.502313,-0.700687,0.506674,-0.100973,-0.465069,-0.059210,-22.703497,-35.251503,21.677490,,,,,,,
1504281853.246711,-2.365923,0.781398,-0.009093,0.054354,0.030210,-0.734807,-0.497089,-0.704273,0.506856,0.042102,-0.368741,0.053721,-22.703497,-35.251503,21.677490,,,,,,,
1504281853.256721,-2.370145,0.785190,-0.001330,0.132768,0.164781,-0.624966,-0.493079,-0.706960,0.507032,0.097937,-0.328929,0.044863,-22.103079,-35.548363,21.456238,,,,,,,
1504281853.266731,-2.373254,0.788075,0.005339,0.079740,0.146977,-0.503342,-0.490081,-0.708997,0.507093,0.153670,-0.308413,-0.019056,-22.103079,-35.548363,21.456238,,,,,,,
1504281853.276741,-2.375804,0.791098,0.010242,0.009710,0.095284,-0.450002,-0.487298,-0.711126,0.506795,0.179666,-0.258693,-0.090611,-21.427526,-35.770317,21.459595,,,,,,,
1504281853.286750,-2.376074,0.794298,0.013340,-0.110275,0.226178,-0.356510,-0.485582,-0.713372,0.505283,0.188539,-0.214332,-0.198932,-21.427526,-35.770317,21.459595,,,,,,,
1504281853.296760,-2.375190,0.798175,0.014983,-0.238704,0.182471,-0.347049,-0.484107,-0.716083,0.502857,0.321875,-0.221142,-0.229786,-21.202185,-35.769753,21.685120,,,,,,,
1504281853.306770,-2.374022,0.802637,0.015106,-0.335450,0.116095,-0.308673,-0.482470,-0.719191,0.499987,0.371783,-0.193697,-0.249850,-21.202185,-35.769753,21.685120,,,,,,,
1504281853.316780,-2.372331,0.807386,0.013310,-0.471458,-0.007582,-0.191276,-0.480934,-0.722482,0.496711,0.346916,-0.229956,-0.308021,-21.126699,-36.143837,21.388123,,,,,,,
1504281853.326789,-2.370989,0.812404,0.008574,-0.623303,-0.271741,-0.118490,-0.479069,-0.725942,0.493458,0.306400,-0.240519,-0.340580,-21.126699,-36.143837,21.388123,,,,,,,
1504281853.336799,-2.368567,0.818279,0.002765,-0.715849,-0.108999,-0.127477,-0.477276,-0.729971,0.489235,0.237118,-0.184580,-0.395409,-20.526907,-36.290382,21.015717,,,,,,,
1504281853.346809,-2.362940,0.825013,-0.003685,-0.807591,0.136883,-0.164361,-0.476558,-0.734557,0.483031,0.309474,-0.232896,-0.332701,-20.526907,-36.290382,21.015717,,,,,,,
1504281853.356819,-2.354455,0.831726,-0.011102,-0.831571,0.389546,-0.085860,-0.477136,-0.739095,0.475479,0.417016,-0.283656,-0.184875,-20.601583,-36.590126,20.717773,,,,,,,
1504281853.366829,-2.342022,0.838218,-0.019956,-0.913116,0.630990,-0.035192,-0.479560,-0.743452,0.466156,0.404059,-0.293367,-0.172714,-20.601583,-36.590126,20.717773,,,,,,,
1504281853.376838,-2.329741,0.845410,-0.029332,-0.924712,0.463872,-0.117107,-0.481356,-0.748243,0.456539,0.367754,-0.205217,-0.136502,-20.377203,-36.887321,19.820557,,,,,,,
1504281853.386848,-2.321665,0.850829,-0.036697,-0.654043,0.210070,-0.028664,-0.482056,-0.751827,0.449864,0.290238,-0.149647,-0.121297,-20.377203,-36.887321,19.820557,,,,,,,
1504281853.396858,-2.315330,0.854172,-0.043619,-0.558762,0.042952,0.066795,-0.483045,-0.754027,0.445096,0.364622,-0.338991,-0.205106,-20.752859,-37.112358,18.996307,,,,,,,
1504281853.406868,-2.311776,0.857117,-0.049860,-0.471813,-0.153841,0.073697,-0.482983,-0.755958,0.441876,0.364850,-0.283104,-0.247479,-20.752859,-37.112358,18.996307,,,,,,,
1504281853.416877,-2.309404,0.858514,-0.055284,-0.322114,-0.195651,0.155153,-0.483249,-0.756872,0.440017,0.354495,-0.315790,-0.253234,-20.976507,-37.787926,18.775818,,,,,,,
1504281853.426887,-2.308089,0.858914,-0.060563,-0.272857,-0.272837,0.209812,-0.483603,-0.757133,0.439178,0.353308,-0.385353,-0.274185,-20.976507,-37.787926,18.775818,,,,,,,
1504281853.436897,-2.306344,0.858934,-0.065381,-0.219615,-0.153926,0.207559,-0.484357,-0.757147,0.438323,0.282606,-0.313196,-0.312224,-20.751776,-37.861320,18.476959,,,,,,,
1504281853.446907,-2.303617,0.858825,-0.069694,-0.200327,-0.018739,0.193478,-0.485612,-0.757075,0.437056,0.268022,-0.299016,-0.297041,-20.751776,-37.861320,18.476959,,,,,,,
1504281853.456916,-2.300953,0.858683,-0.073695,-0.176227,-0.079667,0.184021,-0.486854,-0.756983,0.435832,0.263206,-0.253027,-0.230495,-20.903051,-37.486549,18.248749,,,,,,,
1504281853.466926,-2.299896,0.858046,-0.077818,-0.143457,-0.215328,0.241957,-0.487675,-0.756566,0.435639,0.282246,-0.210322,-0.201905,-20.903051,-37.486549,18.248749,,,,,,,
1504281853.476936,-2.299567,0.856493,-0.081197,-0.030647,-0.237591,0.263539,-0.488694,-0.755549,0.436260,0.305756,-0.200993,-0.243511,-20.978048,-37.486885,18.248566,,,,,,,
1504281853.486904,-2.302023,0.853873,-0.081797,0.224059,-0.313150,0.201137,-0.489093,-0.753831,0.438779,0.320682,-0.247771,-0.206754,-20.978048,-37.486885,18.248566,,,,,,,
1504281853.496914,-2.308223,0.851106,-0.078415,0.276235,-0.341038,-0.036754,-0.487905,-0.752010,0.443204,0.303365,-0.245564,-0.188657,-21.202139,-37.713341,18.474731,,,,,,,
1504281853.506924,-2.322491,0.850331,-0.069060,0.616001,-0.947588,-0.463124,-0.481957,-0.751499,0.450518,0.270410,-0.081829,-0.226962,-21.202139,-37.713341,18.474731,,,,,,,
1504281853.516932,-2.339672,0.849790,-0.055308,0.703017,-0.449421,-0.639973,-0.474438,-0.751142,0.459014,0.156506,-0.136523,-0.208099,-21.201803,-37.713783,18.699707,,,,,,,
1504281853.526942,-2.351671,0.850366,-0.038760,0.753268,0.102361,-0.846867,-0.468589,-0.751522,0.464369,0.107856,-0.148533,-0.337782,-21.201803,-37.713783,18.699707,,,,,,,
1504281853.536952,-2.362385,0.852039,-0.022409,0.583591,0.213545,-0.876177,-0.462703,-0.752625,0.468468,0.302120,-0.136230,-0.081596,-20.151449,-37.634819,19.076721,,,,,,,
1504281853.546962,-2.369722,0.854730,-0.009032,0.374379,0.260991,-0.781625,-0.457839,-0.754394,0.470397,0.366897,-0.319810,-0.173308,-20.151449,-37.634819,19.076721,,,,,,,
1504281853.556973,-2.375219,0.857187,0.000615,0.228485,0.159677,-0.571421,-0.453960,-0.756004,0.471570,0.321117,-0.345497,-0.219433,-19.850668,-37.634514,19.602478,,,,,,,
1504281853.566982,-2.379603,0.860384,0.006250,-0.041648,-0.064119,-0.462619,-0.450217,-0.758093,0.471804,0.348014,-0.311899,-0.205126,-19.850668,-37.634514,19.602478,,,,,,,
1504281853.576992,-2.383641,0.863691,0.009897,-0.055447,-0.135489,-0.377125,-0.446582,-0.760246,0.471795,0.407016,-0.310494,-0.234658,-19.400549,-37.632637,19.678619,,,,,,,
1504281853.587002,-2.387744,0.865569,0.015444,0.171579,0.083253,-0.408072,-0.443665,-0.761464,0.472582,0.376541,-0.379969,-0.236101,-19.400549,-37.632637,19.678619,,,,,,,
1504281853.597012,-2.390656,0.867022,0.022992,0.217704,0.337623,-0.477822,-0.441532,-0.762405,0.473063,0.292499,-0.410126,-0.228602,-18.799353,-37.930534,19.982361,,,,,,,
1504281853.607021,-2.391700,0.869905,0.029070,-0.004341,0.330913,-0.464318,-0.439538,-0.764268,0.471912,0.333398,-0.258086,-0.334248,-18.799353,-37.930534,19.982361,,,,,,,
1504281853.617031,-2.392472,0.873522,0.030989,-0.234221,-0.025410,-0.295439,-0.437288,-0.766596,0.470224,0.331148,-0.255759,-0.332559,-18.499426,-37.854347,20.057526,,,,,,,
1504281853.627041,-2.393436,0.877273,0.028830,-0.408304,-0.328935,-0.105208,-0.434875,-0.768998,0.468535,0.384582,-0.261885,-0.417860,-18.499426,-37.854347,20.057526,,,,,,,
1504281853.637051,-2.394698,0.880880,0.023812,-0.504634,-0.559501,0.014581,-0.432396,-0.771300,0.467045,0.422707,-0.239717,-0.416095,-18.274389,-38.002876,19.834198,,,,,,,
1504281853.647060,-2.395680,0.884407,0.017286,-0.552329,-0.611393,0.081836,-0.430088,-0.773540,0.465468,0.386616,-0.203145,-0.361144,-18.274389,-38.002876,19.834198,,,,,,,
1504281853.657070,-2.395501,0.887991,0.009621,-0.607612,-0.564089,0.117949,-0.428287,-0.775806,0.463353,0.341846,-0.193707,-0.330769,-18.124090,-38.301613,19.536804,,,,,,,
1504281853.667079,-2.394252,0.891885,0.001137,-0.665062,-0.534859,0.131674,-0.426809,-0.778257,0.460598,0.290167,-0.258014,-0.291332,-18.124090,-38.301613,19.536804,,,,,,,
1504281853.677089,-2.392905,0.897063,-0.009856,-0.927725,-0.804460,0.166918,-0.424680,-0.781498,0.457064,0.283430,-0.260677,-0.276430,-18.123724,-38.675865,19.164612,,,,,,,
1504281853.687099,-2.391035,0.903546,-0.023662,-1.076909,-0.899160,0.191377,-0.422070,-0.785527,0.452554,0.291928,-0.229595,-0.285501,-18.123724,-38.675865,19.164612,,,,,,,
1504281853.697109,-2.387871,0.910220,-0.037676,-1.074371,-0.731854,0.164402,-0.419902,-0.789639,0.447384,0.299144,-0.220645,-0.256970,-18.123297,-38.975410,18.941864,,,,,,,
1504281853.707119,-2.383328,0.917398,-0.051515,-1.110575,-0.622809,0.110776,-0.418022,-0.794023,0.441345,0.268883,-0.165511,-0.152954,-18.123297,-38.975410,18.941864,,,,,,,
1504281853.717129,-2.378642,0.924780,-0.065475,-1.121485,-0.656812,0.104413,-0.416024,-0.798488,0.435133,0.247628,-0.088169,-0.102232,-17.599279,-39.121269,18.044281,,,,,,,
1504281853.727139,-2.373047,0.932081,-0.079793,-1.116559,-0.565226,0.119204,-0.414388,-0.802862,0.428596,0.260457,-0.064356,-0.124794,-17.599279,-39.121269,18.044281,,,,,,,
1504281853.737148,-2.366156,0.938911,-0.095032,-1.130443,-0.525753,0.185289,-0.413484,-0.806915,0.421804,0.256791,-0.086639,-0.175634,-17.674551,-39.420250,17.371338,,,,,,,
1504281853.747158,-2.357726,0.945951,-0.111752,-1.207253,-0.511290,0.206478,-0.413003,-0.811054,0.414270,0.245294,-0.151455,-0.282389,-17.674551,-39.420250,17.371338,,,,,,,
1504281853.757168,-2.348572,0.953138,-0.128974,-1.215384,-0.470713,0.190382,-0.412615,-0.815237,0.406372,0.287904,-0.171030,-0.351516,-17.450293,-39.567757,16.623016,,,,,,,
1504281853.767178,-2.339468,0.960312,-0.145495,-1.163492,-0.420999,0.133812,-0.412082,-0.819370,0.398523,0.303074,-0.146618,-0.362680,-17.450293,-39.567757,16.623016,,,,,,,
1504281853.777187,-2.331475,0.966840,-0.159935,-1.006183,-0.388152,0.092398,-0.411372,-0.823095,0.391520,0.302561,-0.125132,-0.323908,-17.374884,-40.091225,16.027100,,,,,,,
1504281853.787197,-2.324853,0.972547,-0.172568,-0.881120,-0.378494,0.061643,-0.410524,-0.826323,0.385565,0.301363,-0.118364,-0.273428,-17.374884,-40.091225,16.027100,,,,,,,
1504281853.797207,-2.320108,0.978041,-0.182665,-0.760837,-0.345277,-0.042813,-0.409019,-0.829405,0.380515,0.271263,-0.132876,-0.262061,-17.300070,-40.464394,15.280090,,,,,,,
1504281853.807217,-2.316286,0.983525,-0.190077,-0.646088,-0.202259,-0.145337,-0.407122,-0.832456,0.375858,0.291140,-0.130282,-0.250919,-17.300070,-40.464394,15.280090,,,,,,,
1504281853.817225,-2.313721,0.988513,-0.195131,-0.504753,-0.159701,-0.177189,-0.405022,-0.835209,0.371999,0.286644,-0.087490,-0.215352,-17.225607,-40.612862,14.681366,,,,,,,
1504281853.827235,-2.313108,0.992862,-0.198464,-0.411261,-0.230765,-0.211059,-0.402569,-0.837593,0.369292,0.273022,-0.087364,-0.212950,-17.225607,-40.612862,14.681366,,,,,,,
1504281853.837245,-2.313841,0.997072,-0.199759,-0.311235,-0.166527,-0.268638,-0.399698,-0.839886,0.367198,0.266137,-0.130573,-0.269038,-17.226095,-40.686958,14.231934,,,,,,,
1504281853.847255,-2.316311,1.001025,-0.199387,-0.233653,-0.225739,-0.302556,-0.396347,-0.842025,0.365928,0.268341,-0.094011,-0.301735,-17.226095,-40.686958,14.231934,,,,,,,
1504281853.857265,-2.319890,1.004359,-0.198061,-0.162456,-0.255108,-0.291707,-0.392977,-0.843818,0.365431,0.250612,-0.074456,-0.321852,-16.776098,-40.909187,13.859711,,,,,,,
1504281853.867244,-2.324112,1.007120,-0.196694,-0.125043,-0.352431,-0.247707,-0.389730,-0.845297,0.365492,0.260640,-0.089609,-0.380629,-16.776098,-40.909187,13.859711,,,,,,,
1504281853.877254,-2.328216,1.008804,-0.196909,-0.118060,-0.442173,-0.079955,-0.387191,-0.846195,0.366110,0.282409,-0.143871,-0.389059,-16.400900,-40.982506,13.861206,,,,,,,
1504281853.887264,-2.331804,1.009193,-0.197961,-0.054626,-0.441752,0.037569,-0.385637,-0.846402,0.367270,0.274263,-0.200656,-0.422675,-16.400900,-40.982506,13.861206,,,,,,,
1504281853.897274,-2.334874,1.008734,-0.200013,-0.044884,-0.505855,0.120956,-0.384788,-0.846158,0.368721,0.351509,-0.262531,-0.373604,-16.175039,-41.281654,13.939026,,,,,,,
1504281853.907284,-2.338463,1.008137,-0.202083,-0.038712,-0.537868,0.115686,-0.383826,-0.845840,0.370450,0.350119,-0.207826,-0.339673,-16.175039,-41.281654,13.939026,,,,,,,
1504281853.917294,-2.342295,1.007679,-0.203710,-0.024491,-0.516636,0.079382,-0.382681,-0.845595,0.372188,0.348975,-0.208070,-0.341411,-16.324621,-41.357628,14.089203,,,,,,,
1504281853.927303,-2.346871,1.007356,-0.204363,0.007840,-0.498749,0.043115,-0.381169,-0.845423,0.374127,0.338352,-0.173483,-0.327740,-16.324621,-41.357628,14.089203,,,,,,,
1504281853.937313,-2.351358,1.006843,-0.204766,0.021776,-0.483956,0.053787,-0.379795,-0.845148,0.376139,0.320728,-0.166799,-0.337046,-16.700186,-41.134300,14.086609,,,,,,,
1504281853.947323,-2.356115,1.006420,-0.204919,0.031466,-0.488273,0.029261,-0.378253,-0.844923,0.378193,0.337848,-0.198565,-0.364308,-16.700186,-41.134300,14.086609,,,,,,,
1504281853.957333,-2.361614,1.005995,-0.204070,0.056402,-0.463927,-0.011300,-0.376421,-0.844695,0.380523,0.321184,-0.222016,-0.365020,-16.249441,-41.208031,14.463287,,,,,,,
1504281853.967342,-2.367195,1.006065,-0.203159,0.018000,-0.484886,-0.046554,-0.374250,-0.844732,0.382576,0.312330,-0.197565,-0.340599,-16.249441,-41.208031,14.463287,,,,,,,
1504281853.977352,-2.373092,1.006137,-0.202259,0.040098,-0.518111,-0.037918,-0.371945,-0.844771,0.384732,0.308636,-0.171053,-0.339841,-16.099401,-41.356911,14.239777,,,,,,,
1504281853.987362,-2.379807,1.005533,-0.199656,0.176507,-0.424363,-0.069869,-0.369706,-0.844447,0.387590,0.286637,-0.167821,-0.335176,-16.099401,-41.356911,14.239777,,,,,,,
1504281853.997372,-2.387390,1.004408,-0.195079,0.264712,-0.360046,-0.110391,-0.367406,-0.843844,0.391075,0.292669,-0.155347,-0.287529,-16.024923,-41.056877,14.387726,,,,,,,
1504281854.007380,-2.395030,1.003428,-0.190550,0.216400,-0.396945,-0.109342,-0.364969,-0.843318,0.394477,0.297327,-0.131673,-0.305289,-16.024923,-41.056877,14.387726,,,,,,,
1504281854.017390,-2.402017,1.003100,-0.187668,0.100397,-0.479130,-0.085915,-0.362390,-0.843142,0.397222,0.271524,-0.142454,-0.377325,-15.574484,-41.055443,14.688812,,,,,,,
1504281854.027400,-2.408384,1.003542,-0.185930,0.009772,-0.483691,-0.106345,-0.359604,-0.843379,0.399244,0.262848,-0.160802,-0.376143,-15.574484,-41.055443,14.688812,,,,,,,
1504281854.037410,-2.413951,1.004595,-0.184206,-0.021268,-0.380014,-0.149283,-0.356785,-0.843945,0.400577,0.213352,-0.155994,-0.314242,-15.423285,-41.355370,14.991455,,,,,,,
1504281854.047421,-2.418445,1.005908,-0.182289,-0.029875,-0.264843,-0.164444,-0.354248,-0.844648,0.401345,0.183090,-0.128664,-0.245156,-15.423285,-41.355370,14.991455,,,,,,,
1504281854.057430,-2.422523,1.006887,-0.180186,0.015154,-0.223679,-0.142023,-0.352064,-0.845172,0.402164,0.177930,-0.129681,-0.238238,-15.049185,-40.903984,15.139038,,,,,,,
1504281854.067440,-2.427011,1.007218,-0.177744,0.073463,-0.252959,-0.114118,-0.350072,-0.845349,0.403529,0.190236,-0.147739,-0.304850,-15.049185,-40.903984,15.139038,,,,,,,
1504281854.077450,-2.431873,1.007333,-0.175397,0.069855,-0.294503,-0.099108,-0.348042,-0.845410,0.405152,0.216344,-0.156894,-0.376191,-14.673056,-41.352303,15.143341,,,,,,,
1504281854.087460,-2.436396,1.007403,-0.173382,0.066745,-0.273182,-0.083139,-0.346168,-0.845448,0.406677,0.244880,-0.155086,-0.417449,-14.673056,-41.352303,15.143341,,,,,,,
1504281854.097469,-2.440432,1.007493,-0.171664,0.040131,-0.259121,-0.072536,-0.344474,-0.845496,0.408012,0.260795,-0.160150,-0.407997,-14.748281,-41.128075,15.366425,,,,,,,
1504281854.107479,-2.443671,1.007964,-0.170782,-0.019537,-0.243720,-0.064128,-0.342895,-0.845747,0.408821,0.266006,-0.172075,-0.376885,-14.748281,-41.128075,15.366425,,,,,,,
1504281854.117489,-2.446061,1.008714,-0.170139,-0.034750,-0.156196,-0.082454,-0.341511,-0.846147,0.409152,0.265232,-0.173765,-0.376834,-14.748281,-41.128075,15.366425,,,,,,,
1504281854.127499,-2.447896,1.009791,-0.168929,-0.048680,-0.060128,-0.130681,-0.340176,-0.846721,0.409077,0.261166,-0.166631,-0.354802,-14.748281,-41.128075,15.366425,,,,,,,
1504281854.137508,-2.449126,1.011568,-0.167496,-0.104384,0.010719,-0.186407,-0.338712,-0.847665,0.408337,0.232907,-0.153998,-0.335201,-14.373251,-41.275948,15.143524,,,,,,,
1504281854.147518,-2.450054,1.014489,-0.166375,-0.211941,-0.001120,-0.246347,-0.336752,-0.849211,0.406741,0.197302,-0.168077,-0.362155,-14.373251,-41.275948,15.143524,,,,,,,
1504281854.157528,-2.451075,1.018206,-0.165240,-0.257662,-0.011350,-0.294442,-0.334324,-0.851168,0.404649,0.177754,-0.218168,-0.406282,-14.073248,-41.274605,15.144257,,,,,,,
1504281854.167537,-2.451930,1.022085,-0.164056,-0.255205,0.032314,-0.289177,-0.331874,-0.853198,0.402385,0.169673,-0.275144,-0.416133,-14.073248,-41.274605,15.144257,,,,,,,
1504281854.177547,-2.452001,1.025616,-0.162786,-0.220407,0.123654,-0.274334,-0.329927,-0.855034,0.400081,0.178499,-0.304344,-0.353573,-13.774237,-41.197197,14.619385,,,,,,,
1504281854.187557,-2.451613,1.029037,-0.161413,-0.220147,0.158812,-0.270126,-0.328218,-0.856803,0.397695,0.234194,-0.248483,-0.290289,-13.774237,-41.197197,14.619385,,,,,,,
1504281854.197567,-2.451158,1.032230,-0.160087,-0.191452,0.157489,-0.249794,-0.326656,-0.858445,0.395434,0.247615,-0.169097,-0.315234,-13.398855,-41.345512,14.621429,,,,,,,
1504281854.207577,-2.451257,1.034901,-0.158308,-0.132975,0.139944,-0.236853,-0.325155,-0.859812,0.393697,0.252584,-0.125311,-0.379522,-13.398855,-41.345512,14.621429,,,,,,,
1504281854.217587,-2.451916,1.037095,-0.155913,-0.082819,0.143789,-0.232503,-0.323695,-0.860930,0.392456,0.263911,-0.099870,-0.400589,-13.473333,-41.645561,14.473511,,,,,,,
1504281854.227596,-2.452507,1.039199,-0.153636,-0.095824,0.127897,-0.217554,-0.322310,-0.861999,0.391248,0.253218,-0.090562,-0.410001,-13.473333,-41.645561,14.473511,,,,,,,
1504281854.237576,-2.452311,1.041717,-0.152473,-0.179267,0.109388,-0.202722,-0.321005,-0.863272,0.389508,0.254141,-0.090189,-0.411389,-13.323629,-41.569740,14.398315,,,,,,,
1504281854.247585,-2.451511,1.044758,-0.152133,-0.237845,0.118402,-0.209244,-0.319644,-0.864803,0.387225,0.256213,-0.091435,-0.416141,-13.323629,-41.569740,14.398315,,,,,,,
1504281854.257595,-2.449926,1.048427,-0.152485,-0.316689,0.123328,-0.223265,-0.318232,-0.866639,0.384272,0.232233,-0.093032,-0.423823,-13.099203,-41.567970,14.023865,,,,,,,
1504281854.267605,-2.447475,1.052933,-0.154125,-0.427870,0.096537,-0.222343,-0.316671,-0.868879,0.380485,0.216650,-0.106127,-0.385826,-13.099203,-41.567970,14.023865,,,,,,,
1504281854.277615,-2.443742,1.058149,-0.157151,-0.513006,0.123879,-0.222539,-0.315173,-0.871449,0.375822,0.213106,-0.115825,-0.335356,-12.874304,-41.791069,13.576111,,,,,,,
