timestamp(unix),attitude_roll(radians),attitude_pitch(radians),attitude_yaw(radians),rotation_rate_x(radians/s),rotation_rate_y(radians/s),rotation_rate_z(radians/s),gravity_x(G),gravity_y(G),gravity_z(G),user_acc_x(G),user_acc_y(G),user_acc_z(G),magnetic_field_x(microteslas),magnetic_field_y(microteslas),magnetic_field_z(microteslas),latitude(degree),longitude(degree),altitude(meter),speed(m/s),course(degree),timestamp(unix),User Mark
1504198043.813131,0.012646,0.420748,0.493729,-0.045266,0.059070,0.030475,0.011543,-0.408443,-0.912711,-0.027213,0.044292,-0.011865,13.553820,-2.983655,-30.860596,,,,,,,
1504198043.823140,0.012333,0.419731,0.494259,-0.026411,0.017350,0.031651,0.011263,-0.407515,-0.913129,-0.022981,0.039671,-0.010379,13.553820,-2.983655,-30.860596,,,,,,,
1504198043.833150,0.011633,0.418972,0.494781,-0.003293,-0.024406,0.033902,0.010626,-0.406821,-0.913446,-0.020254,0.037376,-0.010367,13.478624,-2.908994,-30.861359,,,,,,,
1504198043.843160,0.010599,0.418411,0.495290,0.015647,-0.057598,0.031861,0.009684,-0.406309,-0.913684,-0.019557,0.037459,-0.008923,13.478624,-2.908994,-30.861359,,,,,,,
1504198043.853133,0.009370,0.418012,0.495716,0.021947,-0.075759,0.021232,0.008563,-0.405944,-0.913858,-0.019717,0.036010,-0.005545,13.703295,-2.683270,-30.712494,,,,,,,
1504198043.863142,0.008145,0.417543,0.495987,0.014530,-0.076754,0.007346,0.007445,-0.405516,-0.914058,-0.020201,0.035765,-0.009007,13.703295,-2.683270,-30.712494,,,,,,,
1504198043.873152,0.007081,0.417011,0.496155,0.008285,-0.060716,-0.000163,0.006474,-0.405030,-0.914281,-0.020512,0.034836,-0.010463,13.328554,-2.610562,-30.413940,,,,,,,
1504198043.883162,0.006136,0.416525,0.496379,0.003096,-0.039370,0.002994,0.005611,-0.404585,-0.914483,-0.023495,0.030577,-0.007483,13.328554,-2.610562,-30.413940,,,,,,,
1504198043.893172,0.005366,0.416020,0.496686,0.000001,-0.019113,0.012560,0.004908,-0.404123,-0.914691,-0.023753,0.029718,-0.006329,13.328295,-2.684964,-30.713409,,,,,,,
1504198043.903181,0.004815,0.415494,0.497086,0.000110,0.002182,0.023198,0.004405,-0.403642,-0.914907,-0.021511,0.030168,-0.007747,13.328295,-2.684964,-30.713409,,,,,,,
1504198043.913191,0.004437,0.414888,0.497537,-0.006193,0.018209,0.027430,0.004061,-0.403088,-0.915152,-0.019793,0.033413,-0.005182,13.252993,-2.610150,-30.789154,,,,,,,
1504198043.923201,0.004221,0.414122,0.497933,-0.021153,0.015134,0.025277,0.003864,-0.402386,-0.915462,-0.014744,0.033124,-0.008214,13.252993,-2.610150,-30.789154,,,,,,,
1504198043.933211,0.004041,0.413060,0.498254,-0.041416,0.012109,0.016712,0.003701,-0.401414,-0.915889,-0.013925,0.036546,-0.013432,13.253374,-2.760144,-30.788025,,,,,,,
1504198043.943221,0.004013,0.411829,0.498385,-0.047804,0.008973,0.007103,0.003677,-0.400286,-0.916383,-0.007507,0.038546,-0.015609,13.253374,-2.760144,-30.788025,,,,,,,
1504198043.953230,0.003977,0.410649,0.498538,-0.043561,0.011061,0.013515,0.003646,-0.399204,-0.916855,-0.007125,0.037708,-0.012024,13.477465,-2.533689,-31.014160,,,,,,,
1504198043.963240,0.003741,0.409571,0.498861,-0.034101,0.002442,0.026359,0.003432,-0.398216,-0.917285,-0.011687,0.038765,-0.010693,13.477465,-2.533689,-31.014160,,,,,,,
1504198043.973250,0.003284,0.408579,0.499331,-0.018259,-0.010489,0.036019,0.003013,-0.397305,-0.917682,-0.014534,0.042935,-0.010602,13.328295,-2.684964,-30.713409,,,,,,,
1504198043.983260,0.002717,0.407816,0.499875,-0.000274,-0.022372,0.045681,0.002495,-0.396605,-0.917986,-0.010948,0.039092,-0.011671,13.328295,-2.684964,-30.713409,,,,,,,
1504198043.993269,0.001962,0.407255,0.500535,0.017770,-0.028924,0.052131,0.001801,-0.396090,-0.918210,-0.014634,0.038821,-0.009753,13.478746,-2.909131,-30.786346,,,,,,,
1504198044.003279,0.001109,0.406756,0.501196,0.026312,-0.030059,0.046813,0.001018,-0.395632,-0.918408,-0.018276,0.041995,-0.010913,13.478746,-2.909131,-30.786346,,,,,,,
1504198044.013289,0.000301,0.406327,0.501799,0.029616,-0.020493,0.039333,0.000277,-0.395238,-0.918579,-0.020205,0.039662,-0.012757,13.327990,-2.609815,-30.788971,,,,,,,
1504198044.023299,-0.000419,0.405962,0.502382,0.029746,-0.005577,0.035039,-0.000385,-0.394903,-0.918723,-0.023190,0.036703,-0.011514,13.327990,-2.609815,-30.788971,,,,,,,
1504198044.033308,-0.001025,0.405613,0.502946,0.022399,0.009398,0.032866,-0.000942,-0.394582,-0.918860,-0.026203,0.033651,-0.009561,13.403292,-2.908872,-31.086548,,,,,,,
1504198044.043318,-0.001513,0.405228,0.503475,0.011833,0.020141,0.027492,-0.001390,-0.394229,-0.919011,-0.026823,0.030184,-0.009501,13.403292,-2.908872,-31.086548,,,,,,,
1504198044.053328,-0.001856,0.404715,0.503948,-0.005147,0.029870,0.023177,-0.001706,-0.393757,-0.919213,-0.025820,0.029087,-0.008765,13.553820,-2.759397,-30.487274,,,,,,,
1504198044.063338,-0.002096,0.404127,0.504383,-0.012594,0.034187,0.024225,-0.001927,-0.393216,-0.919444,-0.023555,0.026456,-0.009114,13.553820,-2.759397,-30.487274,,,,,,,
1504198044.073348,-0.002287,0.403536,0.504838,-0.016818,0.040610,0.024207,-0.002103,-0.392673,-0.919676,-0.024417,0.025821,-0.005007,13.328859,-2.909955,-30.711731,,,,,,,
1504198044.083357,-0.002525,0.402897,0.505297,-0.022211,0.034255,0.024209,-0.002323,-0.392085,-0.919926,-0.024884,0.026637,-0.002941,13.328859,-2.909955,-30.711731,,,,,,,
1504198044.093367,-0.002829,0.402216,0.505718,-0.023376,0.021474,0.022096,-0.002603,-0.391459,-0.920192,-0.022711,0.026377,-0.005879,13.703295,-2.683270,-30.712494,,,,,,,
1504198044.103377,-0.003203,0.401477,0.506111,-0.021325,0.010798,0.019985,-0.002948,-0.390779,-0.920480,-0.021634,0.027803,-0.009986,13.703295,-2.683270,-30.712494,,,,,,,
1504198044.113387,-0.003673,0.400824,0.506452,-0.011790,0.000064,0.014684,-0.003381,-0.390177,-0.920734,-0.021734,0.029902,-0.007092,13.328783,-3.059369,-31.010590,,,,,,,
1504198044.123396,-0.004179,0.400371,0.506731,0.010551,-0.009710,0.010472,-0.003848,-0.389760,-0.920908,-0.020169,0.030538,-0.003210,13.328783,-3.059369,-31.010590,,,,,,,
1504198044.133406,-0.004758,0.400136,0.506967,0.026489,-0.018369,0.008381,-0.004382,-0.389543,-0.920998,-0.018918,0.030092,0.000313,13.477465,-2.533689,-31.014160,,,,,,,
1504198044.143416,-0.005426,0.400052,0.507223,0.037063,-0.028053,0.010553,-0.004998,-0.389467,-0.921027,-0.018196,0.028688,0.002127,13.477465,-2.533689,-31.014160,,,,,,,
1504198044.153426,-0.006127,0.400041,0.507481,0.035942,-0.033377,0.011629,-0.005643,-0.389457,-0.921028,-0.016833,0.025046,0.000984,13.328402,-2.909360,-31.011719,,,,,,,
1504198044.163435,-0.006856,0.399998,0.507761,0.030560,-0.036536,0.014828,-0.006315,-0.389416,-0.921040,-0.015811,0.023312,0.000905,13.328402,-2.909360,-31.011719,,,,,,,
1504198044.173445,-0.007505,0.399805,0.507989,0.010393,-0.026777,0.008372,-0.006913,-0.389239,-0.921111,-0.016188,0.022631,0.000930,13.628359,-2.758466,-30.787109,,,,,,,
1504198044.183455,-0.008000,0.399410,0.508149,-0.010860,-0.018076,0.004051,-0.007370,-0.388875,-0.921261,-0.014526,0.021428,0.000058,13.628359,-2.758466,-30.787109,,,,,,,
1504198044.193465,-0.008438,0.398864,0.508272,-0.027893,-0.014739,0.000814,-0.007775,-0.388372,-0.921470,-0.014548,0.019796,0.000663,13.554125,-3.058805,-30.785034,,,,,,,
1504198044.203474,-0.008862,0.398200,0.508406,-0.038538,-0.010393,0.001856,-0.008168,-0.387760,-0.921724,-0.015406,0.020038,0.002031,13.554125,-3.058805,-30.785034,,,,,,,
1504198044.213484,-0.009228,0.397448,0.508522,-0.044914,-0.007147,0.000773,-0.008509,-0.387066,-0.922013,-0.014730,0.021817,0.003830,13.628176,-2.907712,-31.160980,,,,,,,
1504198044.223494,-0.009552,0.396699,0.508624,-0.041701,-0.005045,0.000776,-0.008810,-0.386376,-0.922299,-0.013834,0.022469,0.005231,13.628176,-2.907712,-31.160980,,,,,,,
1504198044.233504,-0.009852,0.395992,0.508735,-0.038502,-0.004010,0.001848,-0.009089,-0.385723,-0.922570,-0.013417,0.021817,0.005928,13.628069,-2.907559,-31.235992,,,,,,,
1504198044.243514,-0.010157,0.395258,0.508793,-0.037460,-0.010409,-0.004542,-0.009374,-0.385046,-0.922850,-0.012050,0.023489,0.002287,13.628069,-2.907559,-31.235992,,,,,,,
1504198044.253523,-0.010486,0.394514,0.508762,-0.031096,-0.018981,-0.011986,-0.009680,-0.384360,-0.923133,-0.011240,0.025702,-0.000207,13.328630,-2.909665,-30.861725,,,,,,,
1504198044.263533,-0.010811,0.393732,0.508638,-0.028993,-0.025388,-0.017307,-0.009984,-0.383637,-0.923430,-0.009029,0.028214,-0.002916,13.328630,-2.909665,-30.861725,,,,,,,
1504198044.273543,-0.011161,0.393016,0.508500,-0.026905,-0.029671,-0.016226,-0.010310,-0.382976,-0.923701,-0.007879,0.025554,-0.004995,13.703554,-2.833127,-30.786346,,,,,,,
1504198044.283553,-0.011525,0.392342,0.508451,-0.024691,-0.025393,-0.006648,-0.010649,-0.382353,-0.923955,-0.008211,0.023528,-0.006252,13.703554,-2.833127,-30.786346,,,,,,,
1504198044.293562,-0.011913,0.391644,0.508549,-0.027893,-0.016858,0.006142,-0.011011,-0.381708,-0.924217,-0.010062,0.023371,-0.006294,13.553743,-2.908795,-30.786163,,,,,,,
1504198044.303572,-0.012289,0.390955,0.508799,-0.027895,-0.008349,0.018937,-0.011361,-0.381072,-0.924476,-0.011923,0.022383,-0.008233,13.553743,-2.908795,-30.786163,,,,,,,
1504198044.313582,-0.012640,0.390205,0.509147,-0.028910,0.002307,0.024255,-0.011690,-0.380378,-0.924757,-0.013747,0.024375,-0.009523,13.477846,-2.683682,-31.013031,,,,,,,
1504198044.323561,-0.012941,0.389425,0.509498,-0.028883,0.006566,0.024249,-0.011972,-0.379657,-0.925050,-0.013373,0.026156,-0.010405,13.477846,-2.683682,-31.013031,,,,,,,
1504198044.333571,-0.013132,0.388685,0.509806,-0.023511,0.010783,0.022118,-0.012152,-0.378972,-0.925328,-0.011652,0.025929,-0.010615,13.478029,-2.758695,-31.012482,,,,,,,
1504198044.343581,-0.013317,0.388048,0.510106,-0.021381,0.009699,0.019990,-0.012326,-0.378383,-0.925567,-0.011843,0.023494,-0.006623,13.478029,-2.758695,-31.012482,,,,,,,
1504198044.353590,-0.013568,0.387491,0.510389,-0.020475,-0.008427,0.022160,-0.012562,-0.377866,-0.925775,-0.007702,0.019727,-0.004904,13.253740,-2.910153,-30.786896,,,,,,,
1504198044.363600,-0.014001,0.386992,0.510690,-0.018529,-0.028696,0.026470,-0.012965,-0.377405,-0.925958,-0.005330,0.016641,-0.006354,13.253740,-2.910153,-30.786896,,,,,,,
1504198044.373610,-0.014622,0.386552,0.511011,-0.015460,-0.044706,0.026504,-0.013543,-0.376997,-0.926115,-0.005393,0.015516,-0.004915,13.328035,-2.759366,-31.012848,,,,,,,
1504198044.383620,-0.015321,0.386153,0.511309,-0.004868,-0.056512,0.022275,-0.014192,-0.376628,-0.926256,-0.005080,0.017588,-0.003157,13.328035,-2.759366,-31.012848,,,,,,,
1504198044.393629,-0.016247,0.386179,0.511426,0.023715,-0.096155,0.003182,-0.015050,-0.376652,-0.926233,-0.001872,0.017658,0.014703,13.403261,-2.759320,-30.862671,,,,,,,
1504198044.403639,-0.017441,0.386295,0.511297,0.008443,-0.146098,-0.009565,-0.016155,-0.376759,-0.926171,0.007076,0.013172,0.033058,13.403261,-2.759320,-30.862671,,,,,,,
1504198044.413649,-0.018923,0.386066,0.511219,0.005164,-0.151406,-0.003156,-0.017529,-0.376547,-0.926232,0.001676,0.019323,0.004280,13.403597,-2.984021,-31.010986,,,,,,,
1504198044.423659,-0.020379,0.386001,0.511336,-0.002078,-0.116194,0.007443,-0.018878,-0.376487,-0.926230,-0.007031,0.013877,0.022528,13.403597,-2.984021,-31.010986,,,,,,,
1504198044.433669,-0.021316,0.385723,0.511611,-0.024001,-0.045703,0.023292,-0.019749,-0.376229,-0.926316,-0.010052,0.012307,0.015290,13.478136,-2.758832,-30.937500,,,,,,,
1504198044.443678,-0.021290,0.385277,0.511989,-0.050082,0.037613,0.038044,-0.019728,-0.375815,-0.926485,-0.010072,0.011893,0.015459,13.478136,-2.758832,-30.937500,,,,,,,
1504198044.453688,-0.021176,0.384435,0.512609,-0.068874,0.091040,0.040052,-0.019629,-0.375035,-0.926803,-0.028085,0.009038,-0.004884,13.403597,-2.984021,-31.010986,,,,,,,
1504198044.463698,-0.020805,0.383453,0.513223,-0.085881,0.100763,0.042140,-0.019293,-0.374125,-0.927178,-0.025171,0.006434,-0.007042,13.403597,-2.984021,-31.010986,,,,,,,
1504198044.473708,-0.020474,0.382407,0.513741,-0.090332,0.074162,0.035775,-0.018994,-0.373155,-0.927575,-0.017978,0.004060,-0.009819,13.327959,-2.684506,-30.938416,,,,,,,
1504198044.483717,-0.020340,0.381418,0.514110,-0.081983,0.043201,0.023036,-0.018877,-0.372237,-0.927946,-0.015211,0.002516,-0.012606,13.327959,-2.684506,-30.938416,,,,,,,
1504198044.493727,-0.020307,0.380646,0.514231,-0.060709,0.020670,-0.000370,-0.018853,-0.371521,-0.928233,-0.011146,0.001968,-0.009908,13.328218,-2.834363,-31.012299,,,,,,,
1504198044.503737,-0.020409,0.380183,0.514115,-0.040521,-0.002919,-0.021642,-0.018950,-0.371090,-0.928403,-0.010499,0.000470,-0.002825,13.328218,-2.834363,-31.012299,,,,,,,
1504198044.513747,-0.020708,0.379911,0.513802,-0.021446,-0.029701,-0.038640,-0.019230,-0.370838,-0.928498,-0.011043,0.001301,-0.000075,13.703173,-2.907376,-31.160797,,,,,,,
1504198044.523756,-0.021195,0.379814,0.513423,0.001917,-0.045876,-0.042840,-0.019683,-0.370748,-0.928525,-0.011552,0.002828,-0.003787,13.703173,-2.907376,-31.160797,,,,,,,
1504198044.533766,-0.021747,0.379934,0.513054,0.021116,-0.047101,-0.043872,-0.020194,-0.370859,-0.928470,-0.012826,0.002252,-0.003629,13.328173,-2.684812,-30.788391,,,,,,,
1504198044.543776,-0.022248,0.380162,0.512712,0.029727,-0.035457,-0.040675,-0.020658,-0.371071,-0.928375,-0.013934,0.003975,-0.001053,13.328173,-2.684812,-30.788391,,,,,,,
1504198044.553786,-0.022453,0.380350,0.512389,0.025658,-0.007724,-0.036461,-0.020847,-0.371245,-0.928301,-0.010525,0.004546,-0.003294,13.328478,-2.759961,-30.712860,,,,,,,
1504198044.563795,-0.022339,0.380416,0.512136,0.010996,0.030749,-0.030150,-0.020741,-0.371307,-0.928278,-0.012386,0.003723,-0.005071,13.328478,-2.759961,-30.712860,,,,,,,
1504198044.573805,-0.021911,0.380281,0.511928,-0.012313,0.055441,-0.023829,-0.020344,-0.371182,-0.928337,-0.009502,0.002331,-0.006889,13.328371,-2.759809,-30.787842,,,,,,,
1504198044.583815,-0.021336,0.379891,0.511733,-0.034731,0.056686,-0.019600,-0.019813,-0.370819,-0.928494,-0.005837,0.001907,-0.010318,13.328371,-2.759809,-30.787842,,,,,,,
1504198044.593825,-0.020820,0.379370,0.511533,-0.043443,0.035444,-0.018510,-0.019338,-0.370336,-0.928697,-0.000437,0.000936,-0.013000,13.252916,-2.535291,-30.714722,,,,,,,
1504198044.603835,-0.020482,0.378911,0.511252,-0.026668,-0.001987,-0.019482,-0.019028,-0.369909,-0.928873,0.008286,0.002142,-0.015875,13.252916,-2.535291,-30.714722,,,,,,,
1504198044.613844,-0.020562,0.378801,0.510944,0.015562,-0.057743,-0.019310,-0.019103,-0.369807,-0.928912,0.015075,0.003962,-0.011868,13.477465,-2.533689,-31.014160,,,,,,,
1504198044.623854,-0.021248,0.379137,0.510592,0.064282,-0.110343,-0.031941,-0.019737,-0.370119,-0.928775,0.010399,0.008822,-0.008497,13.477465,-2.533689,-31.014160,,,,,,,
1504198044.633864,-0.022383,0.379956,0.510101,0.123818,-0.147045,-0.048851,-0.020785,-0.370880,-0.928448,0.005847,0.018386,-0.001621,13.327501,-2.683911,-31.238403,,,,,,,
1504198044.643874,-0.023550,0.381257,0.509429,0.171741,-0.165540,-0.061543,-0.021857,-0.372088,-0.927940,0.012473,0.021960,0.002113,13.327501,-2.683911,-31.238403,,,,,,,
1504198044.653883,-0.024928,0.382856,0.508722,0.198377,-0.174275,-0.068952,-0.023121,-0.373571,-0.927313,0.006214,0.023931,0.001074,13.477495,-2.683240,-31.238037,,,,,,,
1504198044.663893,-0.026386,0.384545,0.508023,0.202685,-0.170047,-0.071086,-0.024457,-0.375137,-0.926647,0.000210,0.024505,0.000591,13.477495,-2.683240,-31.238037,,,,,,,
1504198044.673903,-0.027743,0.386111,0.507387,0.189935,-0.156100,-0.060457,-0.025697,-0.376589,-0.926024,0.000688,0.023744,-0.004304,12.877550,-2.611234,-31.090088,,,,,,,
1504198044.683913,-0.029016,0.387588,0.506990,0.172948,-0.130411,-0.037048,-0.026860,-0.377956,-0.925434,-0.001918,0.018307,-0.005963,12.877550,-2.611234,-31.090088,,,,,,,
1504198044.693922,-0.030127,0.388843,0.506908,0.140095,-0.087543,-0.013697,-0.027874,-0.379118,-0.924928,-0.009174,0.014021,-0.004942,12.878038,-2.761380,-31.013947,,,,,,,
1504198044.703932,-0.030904,0.389783,0.507004,0.110539,-0.039364,-0.001024,-0.028581,-0.379988,-0.924550,-0.013060,0.015196,-0.002696,12.878038,-2.761380,-31.013947,,,,,,,
1504198044.713942,-0.031271,0.390445,0.507157,0.083206,0.012006,-0.001161,-0.028913,-0.380600,-0.924288,-0.017947,0.015243,-0.001600,12.953829,-3.210599,-31.235413,,,,,,,
1504198044.723952,-0.031097,0.390886,0.507224,0.058015,0.059105,-0.009826,-0.028747,-0.381008,-0.924125,-0.017365,0.012646,-0.000268,12.953829,-3.210599,-31.235413,,,,,,,
1504198044.733962,-0.030457,0.391188,0.507152,0.040126,0.085897,-0.017376,-0.028152,-0.381287,-0.924028,-0.012284,0.011109,0.002840,12.803484,-2.986569,-31.087463,,,,,,,
1504198044.743971,-0.029743,0.391369,0.507119,0.031446,0.077427,-0.002432,-0.027490,-0.381455,-0.923979,-0.009482,0.011170,0.004774,12.803484,-2.986569,-31.087463,,,,,,,
1504198044.753981,-0.029550,0.391543,0.507520,0.027774,0.043314,0.037117,-0.027310,-0.381615,-0.923918,-0.010669,0.011238,0.008650,12.803606,-2.986722,-31.012451,,,,,,,
1504198044.763991,-0.030009,0.391595,0.507906,0.031869,0.004942,0.009440,-0.027733,-0.381663,-0.923885,-0.024162,0.022929,0.014187,12.803606,-2.986722,-31.012451,,,,,,,
1504198044.774001,-0.030106,0.391825,0.507958,0.036064,-0.007874,0.003066,-0.027820,-0.381876,-0.923795,-0.002545,0.009302,0.001111,13.103563,-3.060071,-31.161133,,,,,,,
1504198044.784010,-0.030047,0.392338,0.507915,0.032570,-0.040880,0.009522,-0.027760,-0.382350,-0.923600,0.022252,-0.003072,0.016847,13.103563,-3.060071,-31.161133,,,,,,,
1504198044.794020,-0.031011,0.392676,0.508005,0.019603,-0.072726,-0.008590,-0.028646,-0.382662,-0.923444,-0.013529,0.004488,0.025358,13.104052,-3.210233,-31.085022,,,,,,,
1504198044.804030,-0.031705,0.392657,0.507797,0.016432,-0.078013,-0.023530,-0.029287,-0.382644,-0.923431,0.000463,0.013916,0.004746,13.104052,-3.210233,-31.085022,,,,,,,
1504198044.814040,-0.032045,0.392855,0.507451,0.026019,-0.075963,-0.017113,-0.029599,-0.382827,-0.923346,0.020078,0.007003,0.010092,13.028368,-2.985410,-31.161896,,,,,,,
1504198044.824049,-0.032628,0.393026,0.507341,0.024028,-0.054640,-0.011816,-0.030135,-0.382986,-0.923263,-0.000047,0.014821,0.021209,13.028368,-2.985410,-31.161896,,,,,,,
1504198044.834059,-0.033111,0.393139,0.507324,0.014633,-0.025798,-0.007613,-0.030579,-0.383090,-0.923205,-0.008651,0.012057,0.017809,12.728823,-3.211621,-31.235962,,,,,,,
1504198044.844069,-0.033078,0.393134,0.507284,-0.009629,0.012757,-0.001319,-0.030549,-0.383086,-0.923208,0.000352,0.001280,0.006414,12.728823,-3.211621,-31.235962,,,,,,,
1504198044.854064,-0.032842,0.392707,0.507392,-0.038102,0.058803,0.004955,-0.030336,-0.382691,-0.923378,-0.011641,0.008378,0.003197,12.803606,-3.210980,-31.385773,,,,,,,
1504198044.864073,-0.032267,0.391906,0.507561,-0.077274,0.098547,0.006953,-0.029816,-0.381951,-0.923702,-0.016815,0.009194,0.005016,12.803606,-3.210980,-31.385773,,,,,,,
1504198044.874083,-0.031301,0.390805,0.507705,-0.117568,0.129778,0.006828,-0.028936,-0.380933,-0.924150,-0.014215,0.001996,0.003373,12.804171,-3.211728,-31.010773,,,,,,,
1504198044.884093,-0.030044,0.389394,0.507782,-0.148338,0.149214,0.003539,-0.027790,-0.379628,-0.924722,-0.011791,-0.002315,0.000589,12.804171,-3.211728,-31.010773,,,,,,,
1504198044.894103,-0.028630,0.387756,0.507767,-0.170670,0.153666,-0.003979,-0.026501,-0.378112,-0.925380,-0.009479,-0.003281,0.000530,12.728380,-2.986768,-31.162628,,,,,,,
1504198044.904082,-0.027143,0.386045,0.507562,-0.180307,0.139908,-0.018915,-0.025142,-0.376528,-0.926064,-0.002980,-0.004789,0.004159,12.728380,-2.986768,-31.162628,,,,,,,
1504198044.914092,-0.025710,0.384354,0.507196,-0.177231,0.117517,-0.029545,-0.023832,-0.374960,-0.926735,0.002347,-0.005914,0.004951,12.953402,-2.911054,-31.012634,,,,,,,
1504198044.924102,-0.024479,0.382789,0.506746,-0.158146,0.097123,-0.038015,-0.022705,-0.373509,-0.927349,0.001678,-0.003993,0.003963,12.953402,-2.911054,-31.012634,,,,,,,
1504198044.934111,-0.023584,0.381457,0.506309,-0.122033,0.075515,-0.040049,-0.021887,-0.372273,-0.927865,-0.005045,0.001042,0.003030,13.103258,-2.984921,-31.236725,,,,,,,
1504198044.944121,-0.022953,0.380465,0.505946,-0.088124,0.051782,-0.031409,-0.021310,-0.371353,-0.928247,-0.005637,0.002471,0.003656,13.103258,-2.984921,-31.236725,,,,,,,
1504198044.954131,-0.022693,0.379719,0.505750,-0.066028,0.021747,-0.017441,-0.021075,-0.370660,-0.928530,-0.006467,0.004281,0.005098,13.028063,-2.910260,-31.237457,,,,,,,
1504198044.964141,-0.022825,0.379055,0.505729,-0.054599,-0.007135,-0.002427,-0.021203,-0.370043,-0.928773,-0.007881,0.005693,0.001176,13.028063,-2.910260,-31.237457,,,,,,,
1504198044.974150,-0.023047,0.378369,0.505807,-0.050408,-0.010378,0.007194,-0.021415,-0.369405,-0.929022,-0.005426,0.006384,-0.008539,13.103441,-2.835675,-30.862854,,,,,,,
1504198044.984160,-0.023115,0.377695,0.505914,-0.044889,0.013019,0.007163,-0.021484,-0.368779,-0.929269,-0.005783,0.007070,-0.014670,13.103441,-2.835675,-30.862854,,,,,,,
1504198044.994170,-0.022899,0.377064,0.506032,-0.039210,0.054531,0.003898,-0.021288,-0.368192,-0.929506,-0.011701,0.009137,-0.011885,13.102694,-2.535672,-30.865112,,,,,,,
1504198045.004180,-0.022364,0.376387,0.506159,-0.042167,0.085455,0.003840,-0.020797,-0.367563,-0.929766,-0.014055,0.013788,-0.006590,13.102694,-2.535672,-30.865112,,,,,,,
1504198045.014189,-0.021617,0.375617,0.506276,-0.049521,0.100431,0.003802,-0.020108,-0.366847,-0.930064,-0.013248,0.015193,-0.007009,13.102922,-2.760221,-31.088409,,,,,,,
1504198045.024199,-0.020948,0.374842,0.506396,-0.050766,0.081254,0.008104,-0.019492,-0.366126,-0.930361,-0.010186,0.011420,-0.012235,13.102922,-2.760221,-31.088409,,,,,,,
1504198045.034209,-0.020457,0.374086,0.506581,-0.044619,0.056682,0.018833,-0.019041,-0.365422,-0.930647,-0.005251,0.010655,-0.017641,13.252840,-2.684705,-31.013580,,,,,,,
1504198045.044219,-0.020186,0.373479,0.506840,-0.036270,0.036361,0.023153,-0.018794,-0.364857,-0.930874,-0.004324,0.007725,-0.014500,13.252840,-2.684705,-31.013580,,,,,,,
1504198045.054228,-0.020247,0.373070,0.507127,-0.021601,0.003206,0.023238,-0.018853,-0.364476,-0.931022,-0.004844,0.006993,-0.006676,13.327425,-2.609067,-31.163971,,,,,,,
1504198045.064238,-0.020396,0.372768,0.507303,0.000740,-0.009757,0.014761,-0.018994,-0.364194,-0.931129,-0.000400,0.011503,-0.009300,13.327425,-2.609067,-31.163971,,,,,,,
1504198045.074248,-0.020397,0.372814,0.507407,0.030711,0.000657,0.011592,-0.018995,-0.364237,-0.931113,0.003690,0.009104,-0.007822,13.327471,-2.534360,-31.014526,,,,,,,
1504198045.084258,-0.020355,0.373148,0.507505,0.055283,0.003654,0.009495,-0.018953,-0.364548,-0.930992,0.002916,0.011979,0.003272,13.327471,-2.534360,-31.014526,,,,,,,
1504198045.094268,-0.020399,0.373592,0.507606,0.060622,0.002547,0.006304,-0.018991,-0.364962,-0.930829,-0.001899,0.014514,0.009198,13.327913,-2.759213,-31.087860,,,,,,,
1504198045.104277,-0.020374,0.374034,0.507652,0.055288,0.001528,0.004162,-0.018964,-0.365374,-0.930668,0.001721,0.010042,0.004856,13.327913,-2.759213,-31.087860,,,,,,,
1504198045.114287,-0.020389,0.374454,0.507713,0.051979,-0.009104,0.008445,-0.018975,-0.365765,-0.930514,0.004525,0.007839,0.001986,13.328035,-2.759366,-31.012848,,,,,,,
1504198045.124297,-0.020550,0.374850,0.507853,0.047597,-0.018666,0.015926,-0.019122,-0.366133,-0.930366,0.003024,0.007017,0.002388,13.328035,-2.759366,-31.012848,,,,,,,
1504198045.134307,-0.020952,0.375299,0.508077,0.048492,-0.036794,0.021297,-0.019492,-0.366551,-0.930194,0.000190,0.003865,0.006030,13.102694,-2.759931,-31.238403,,,,,,,
1504198045.144316,-0.021530,0.375782,0.508316,0.057912,-0.058185,0.023486,-0.020026,-0.367000,-0.930005,0.002722,0.006481,0.005399,13.102694,-2.759931,-31.238403,,,,,,,
1504198045.154326,-0.022388,0.376398,0.508756,0.082102,-0.085051,0.050260,-0.020819,-0.367573,-0.929761,0.006506,0.010335,0.004819,13.102800,-2.760068,-31.163391,,,,,,,
1504198045.164336,-0.023547,0.377060,0.509289,0.103375,-0.098004,0.041781,-0.021891,-0.368188,-0.929494,0.000955,0.023721,0.008183,13.102800,-2.760068,-31.163391,,,,,,,
1504198045.174346,-0.024693,0.377953,0.509647,0.116326,-0.089570,0.024711,-0.022948,-0.369018,-0.929139,-0.005434,0.021179,0.011674,13.103487,-2.985227,-31.086731,,,,,,,
1504198045.184355,-0.025298,0.379033,0.509839,0.122862,-0.072571,0.024692,-0.023500,-0.370022,-0.928726,0.016451,0.011944,0.003356,13.103487,-2.985227,-31.086731,,,,,,,
1504198045.194365,-0.026137,0.379824,0.510142,0.116637,-0.054399,0.017178,-0.024272,-0.370757,-0.928413,-0.008367,0.027145,0.003028,13.628252,-2.758313,-30.862122,,,,,,,
1504198045.204375,-0.026841,0.380741,0.510302,0.118913,-0.044815,0.003290,-0.024916,-0.371608,-0.928055,-0.010073,0.018504,0.002457,13.628252,-2.758313,-30.862122,,,,,,,
1504198045.214385,-0.027113,0.381524,0.510290,0.118024,-0.027748,-0.006347,-0.025161,-0.372336,-0.927757,0.002913,0.027426,0.000908,12.953829,-3.210599,-31.235413,,,,,,,
1504198045.224395,-0.027468,0.382211,0.510321,0.111618,-0.023441,0.000039,-0.025483,-0.372973,-0.927492,-0.006698,0.032244,0.008455,12.953829,-3.210599,-31.235413,,,,,,,
1504198045.234404,-0.027803,0.383209,0.510499,0.083734,-0.029625,0.019215,-0.025783,-0.373899,-0.927111,0.001888,-0.003680,0.001574,13.328707,-3.208768,-31.309479,,,,,,,
1504198045.244414,-0.028291,0.384034,0.510822,0.035856,-0.012185,0.021236,-0.026227,-0.374664,-0.926790,-0.011249,-0.023881,-0.003996,13.328707,-3.208768,-31.309479,,,,,,,
1504198045.254424,-0.028364,0.384350,0.511084,-0.015034,0.025531,0.017879,-0.026291,-0.374956,-0.926670,-0.008682,-0.025388,-0.006253,13.328783,-3.059369,-31.010590,,,,,,,
1504198045.264434,-0.027964,0.384078,0.511321,-0.053131,0.066334,0.020943,-0.025923,-0.374705,-0.926782,-0.005663,-0.012060,0.000680,13.328783,-3.059369,-31.010590,,,,,,,
1504198045.274443,-0.027446,0.383617,0.511660,-0.068970,0.089899,0.026211,-0.025448,-0.374277,-0.926968,-0.013752,-0.009863,0.008404,13.103716,-2.985532,-30.936737,,,,,,,
1504198045.284453,-0.026875,0.383189,0.511996,-0.071035,0.084633,0.025123,-0.024923,-0.373880,-0.927142,-0.010996,-0.014075,0.013247,13.103716,-2.985532,-30.936737,,,,,,,
1504198045.294463,-0.026435,0.382800,0.512251,-0.059449,0.060036,0.016648,-0.024519,-0.373520,-0.927298,-0.009585,-0.010865,0.012610,13.553255,-2.982907,-31.235596,,,,,,,
1504198045.304473,-0.026183,0.382515,0.512389,-0.034075,0.026799,0.010346,-0.024288,-0.373255,-0.927411,-0.003819,-0.004232,0.010525,13.553255,-2.982907,-31.235596,,,,,,,
1504198045.314482,-0.026130,0.382472,0.512419,-0.006551,-0.004323,0.004044,-0.024239,-0.373215,-0.927428,0.003289,-0.001907,0.010741,13.178637,-2.910336,-30.862091,,,,,,,
1504198045.324492,-0.026348,0.382688,0.512430,0.014488,-0.040727,0.006278,-0.024440,-0.373416,-0.927342,0.006709,-0.002164,0.012822,13.178637,-2.910336,-30.862091,,,,,,,
1504198045.334502,-0.026920,0.382999,0.512558,0.021722,-0.064239,0.015939,-0.024966,-0.373704,-0.927212,0.005725,-0.001311,0.012722,13.628862,-3.132871,-31.084320,,,,,,,
1504198045.344512,-0.027715,0.383161,0.512694,0.014254,-0.069497,0.007396,-0.025702,-0.373854,-0.927131,-0.001397,0.004805,0.010872,13.628862,-3.132871,-31.084320,,,,,,,
1504198045.354521,-0.028203,0.383335,0.512633,-0.003702,-0.054417,-0.004404,-0.026152,-0.374015,-0.927054,0.005965,-0.008339,0.006262,13.704042,-3.207532,-31.083557,,,,,,,
1504198045.364531,-0.028276,0.383253,0.512469,-0.024721,-0.018005,-0.009842,-0.026221,-0.373940,-0.927082,0.009634,-0.005806,0.003254,13.704042,-3.207532,-31.083557,,,,,,,
1504198045.374541,-0.028228,0.382801,0.512375,-0.046791,0.022670,-0.012087,-0.026182,-0.373520,-0.927252,-0.007128,0.003632,0.004889,13.403627,-2.909329,-30.861542,,,,,,,
1504198045.384551,-0.027742,0.382163,0.512306,-0.066787,0.061189,-0.005784,-0.025738,-0.372928,-0.927503,-0.003895,0.001834,0.004102,13.403627,-2.909329,-30.861542,,,,,,,
1504198045.394561,-0.026893,0.381358,0.512267,-0.084684,0.093300,-0.002670,-0.024958,-0.372181,-0.927824,-0.002675,-0.001018,0.001280,13.103930,-2.985822,-30.786713,,,,,,,
1504198045.404570,-0.025822,0.380446,0.512164,-0.089840,0.110401,-0.011248,-0.023973,-0.371335,-0.928189,-0.003172,0.001508,0.001401,13.103930,-2.985822,-30.786713,,,,,,,
1504198045.414580,-0.024544,0.379522,0.511926,-0.086558,0.114647,-0.020856,-0.022795,-0.370476,-0.928562,0.001555,0.002449,0.001041,13.253603,-2.984708,-31.011353,,,,,,,
1504198045.424590,-0.023285,0.378652,0.511621,-0.074884,0.104964,-0.024021,-0.021633,-0.369668,-0.928912,0.001873,0.004784,-0.000104,13.253603,-2.984708,-31.011353,,,,,,,
1504198045.434600,-0.022195,0.378033,0.511328,-0.047325,0.084489,-0.020735,-0.020626,-0.369093,-0.929163,0.003872,0.004500,-0.001028,13.252916,-2.759549,-31.088043,,,,,,,
1504198045.444609,-0.021438,0.377679,0.511155,-0.026263,0.056600,-0.009976,-0.019926,-0.368764,-0.929309,0.002958,0.003408,0.001117,13.252916,-2.759549,-31.088043,,,,,,,
1504198045.454619,-0.020973,0.377438,0.511106,-0.016931,0.030936,0.002894,-0.019495,-0.368540,-0.929408,0.004984,0.004770,0.004282,13.553102,-2.833203,-31.086731,,,,,,,
1504198045.464629,-0.020770,0.377249,0.511216,-0.009678,0.012748,0.016815,-0.019308,-0.368364,-0.929481,0.004828,0.003924,-0.000634,13.553102,-2.833203,-31.086731,,,,,,,
1504198045.474639,-0.020734,0.377143,0.511418,-0.002336,0.000960,0.023252,-0.019275,-0.368266,-0.929521,0.004367,0.003322,-0.000625,13.178896,-3.060193,-30.935974,,,,,,,
1504198045.484618,-0.020779,0.377133,0.511622,0.002985,-0.003341,0.018999,-0.019317,-0.368256,-0.929524,0.002792,0.001923,0.003346,13.178896,-3.060193,-30.935974,,,,,,,
1504198045.494628,-0.020779,0.377181,0.511768,0.009472,0.004071,0.013661,-0.019317,-0.368301,-0.929506,0.002212,0.002884,0.003526,13.328402,-2.909360,-31.011719,,,,,,,
1504198045.504637,-0.020619,0.377192,0.511851,0.012817,0.018968,0.008303,-0.019168,-0.368311,-0.929505,0.003024,0.007532,0.002106,13.328402,-2.909360,-31.011719,,,,,,,
1504198045.514647,-0.020284,0.377131,0.511924,0.008759,0.043514,0.005051,-0.018857,-0.368254,-0.929534,-0.000201,0.011290,0.000777,13.403368,-2.983731,-31.160980,,,,,,,
1504198045.524657,-0.019721,0.376973,0.512016,-0.002799,0.068114,0.008190,-0.018335,-0.368108,-0.929602,-0.001852,0.010594,0.001456,13.403368,-2.983731,-31.160980,,,,,,,
1504198045.534667,-0.019007,0.376699,0.512150,-0.012324,0.082039,0.014553,-0.017674,-0.367853,-0.929716,-0.001980,0.010873,-0.000032,13.553026,-2.758359,-31.012299,,,,,,,
1504198045.544676,-0.018331,0.376358,0.512406,-0.017718,0.081007,0.024153,-0.017047,-0.367536,-0.929853,-0.003904,0.010053,-0.000185,13.553026,-2.758359,-31.012299,,,,,,,
1504198045.554686,-0.017756,0.376008,0.512778,-0.026389,0.071475,0.035896,-0.016515,-0.367210,-0.929991,-0.003429,0.007255,0.003768,13.402758,-2.609174,-30.938812,,,,,,,
1504198045.564696,-0.017389,0.375668,0.513307,-0.027679,0.054417,0.053003,-0.016176,-0.366894,-0.930122,-0.002669,0.004147,0.003471,13.402758,-2.609174,-30.938812,,,,,,,
1504198045.574706,-0.017252,0.375399,0.514023,-0.022566,0.037308,0.070120,-0.016050,-0.366643,-0.930223,-0.001101,0.001653,0.003923,13.477846,-2.683682,-31.013031,,,,,,,
1504198045.584716,-0.017308,0.375272,0.514876,-0.011994,0.029753,0.077624,-0.016102,-0.366526,-0.930269,-0.003826,-0.000326,0.005861,13.477846,-2.683682,-31.013031,,,,,,,
1504198045.594725,-0.017459,0.375276,0.515694,-0.001311,0.025411,0.068044,-0.016243,-0.366529,-0.930265,-0.006782,-0.000216,0.008588,13.478777,-2.834439,-30.636902,,,,,,,
1504198045.604735,-0.017602,0.375344,0.516313,0.001938,0.017945,0.046715,-0.016376,-0.366593,-0.930237,-0.006726,0.001160,0.013123,13.478777,-2.834439,-30.636902,,,,,,,
1504198045.614745,-0.017689,0.375403,0.516664,0.003071,0.011566,0.023246,-0.016456,-0.366647,-0.930215,-0.005379,0.002862,0.011651,13.553209,-2.833356,-31.011719,,,,,,,
1504198045.624755,-0.017760,0.375439,0.516822,-0.002208,0.008427,0.007232,-0.016522,-0.366681,-0.930200,-0.006610,0.001797,0.011667,13.553209,-2.833356,-31.011719,,,,,,,
1504198045.634764,-0.017857,0.375480,0.516869,-0.011741,0.009581,-0.004528,-0.016612,-0.366719,-0.930183,-0.010792,-0.003047,0.013512,13.403749,-2.909482,-30.786530,,,,,,,
1504198045.644774,-0.017965,0.375433,0.516861,-0.025564,0.011829,-0.009892,-0.016713,-0.366675,-0.930199,-0.013240,-0.005792,0.012169,13.403749,-2.909482,-30.786530,,,,,,,
1504198045.654784,-0.017982,0.375289,0.516761,-0.036134,0.017251,-0.020593,-0.016730,-0.366541,-0.930251,-0.013940,-0.009237,0.008468,13.328478,-2.984220,-31.086182,,,,,,,
1504198045.664794,-0.017884,0.375156,0.516472,-0.040343,0.014104,-0.036605,-0.016639,-0.366418,-0.930302,-0.010720,-0.012122,0.010990,13.328478,-2.984220,-31.086182,,,,,,,
1504198045.674803,-0.017789,0.375014,0.515994,-0.039379,-0.007204,-0.049375,-0.016552,-0.366285,-0.930355,-0.004719,-0.010256,0.014431,13.478182,-2.684140,-30.788025,,,,,,,
1504198045.684813,-0.017847,0.374787,0.515389,-0.043854,-0.038062,-0.056800,-0.016607,-0.366074,-0.930437,0.001638,-0.007690,0.012743,13.478182,-2.684140,-30.788025,,,,,,,
1504198045.694823,-0.018036,0.374375,0.514620,-0.055667,-0.057128,-0.071731,-0.016786,-0.365691,-0.930585,0.004411,-0.004213,0.005796,13.553926,-2.983808,-30.785583,,,,,,,
1504198045.704833,-0.018051,0.373732,0.513720,-0.058686,-0.038979,-0.079241,-0.016804,-0.365092,-0.930820,0.007404,0.003001,-0.003735,13.553926,-2.983808,-30.785583,,,,,,,
1504198045.714843,-0.017789,0.373068,0.512816,-0.050987,-0.009205,-0.078213,-0.016564,-0.364474,-0.931066,0.005975,0.005465,-0.007487,13.478624,-2.908994,-30.861359,,,,,,,
1504198045.724852,-0.017421,0.372505,0.511999,-0.042355,0.007766,-0.070756,-0.016226,-0.363950,-0.931277,0.001837,0.007276,-0.002118,13.478624,-2.908994,-30.861359,,,,,,,
1504198045.734862,-0.017003,0.371985,0.511365,-0.028553,0.012959,-0.049393,-0.015839,-0.363465,-0.931473,0.003953,0.011628,-0.002716,13.553026,-2.758359,-31.012299,,,,,,,
1504198045.744872,-0.016680,0.371594,0.511049,-0.009544,0.009573,-0.016265,-0.015541,-0.363101,-0.931620,0.006767,0.013735,-0.007100,13.553743,-2.908795,-30.786163,,,,,,,
1504198045.754882,-0.016498,0.371367,0.511051,-0.003265,0.010562,0.009361,-0.015372,-0.362890,-0.931705,0.006064,0.010610,-0.003964,13.553743,-2.908795,-30.786163,,,,,,,
1504198045.764891,-0.016364,0.371215,0.511239,0.000943,0.012645,0.024308,-0.015249,-0.362748,-0.931763,0.005651,0.007829,-0.003830,13.553743,-2.908795,-30.786163,,,,,,,
1504198045.774901,-0.016180,0.371178,0.511515,0.011615,0.017879,0.031789,-0.015078,-0.362713,-0.931779,0.008211,0.005292,-0.004684,13.478289,-2.908536,-31.086365,,,,,,,
1504198045.784911,-0.016038,0.371321,0.511845,0.015939,0.024239,0.030718,-0.014944,-0.362847,-0.931729,0.002112,0.000603,-0.000659,13.478289,-2.908536,-31.086365,,,,,,,
1504198045.794921,-0.015802,0.371411,0.512096,0.004417,0.042462,0.016790,-0.014724,-0.362930,-0.931700,-0.003785,-0.000565,-0.000612,13.403032,-2.759030,-31.012665,,,,,,,
1504198045.804930,-0.015362,0.371271,0.512155,-0.013435,0.065007,-0.004628,-0.014315,-0.362800,-0.931757,-0.009504,0.001609,-0.004889,13.403032,-2.759030,-31.012665,,,,,,,
1504198045.814940,-0.014673,0.370973,0.512227,-0.031393,0.092850,0.003831,-0.013674,-0.362522,-0.931875,-0.009763,-0.001598,-0.008402,13.478029,-2.758695,-31.012482,,,,,,,
1504198045.824950,-0.013924,0.370405,0.512325,-0.057775,0.120781,-0.010138,-0.012979,-0.361993,-0.932090,-0.025000,0.001046,-0.004235,13.478029,-2.758695,-31.012482,,,,,,,
1504198045.834960,-0.012981,0.369862,0.512127,-0.075695,0.128414,-0.041135,-0.012103,-0.361487,-0.932299,-0.027905,-0.012307,-0.001097,13.552721,-2.683194,-31.087860,,,,,,,
1504198045.844969,-0.011560,0.369380,0.511471,-0.078865,0.115679,-0.066736,-0.010780,-0.361037,-0.932489,-0.002495,-0.023134,-0.009756,13.552721,-2.683194,-31.087860,,,,,,,
1504198045.854979,-0.010540,0.368685,0.510576,-0.062032,0.068681,-0.094376,-0.009832,-0.360389,-0.932750,-0.008876,0.001472,0.002529,13.703142,-2.757825,-30.936951,,,,,,,
1504198045.864989,-0.009937,0.368236,0.509452,-0.032564,0.008780,-0.109163,-0.009270,-0.359970,-0.932918,-0.003318,0.004685,0.006053,13.702654,-2.607678,-31.013062,,,,,,,
1504198045.874999,-0.009526,0.368191,0.508159,0.001257,-0.034116,-0.113299,-0.008887,-0.359928,-0.932938,0.011436,0.002034,0.009750,13.702654,-2.607678,-31.013062,,,,,,,
1504198045.885009,-0.009410,0.368534,0.506855,0.029909,-0.055658,-0.116414,-0.008778,-0.360248,-0.932815,0.008839,0.002125,0.019287,13.852343,-2.531857,-31.088257,,,,,,,
1504198045.895018,-0.009579,0.369042,0.505735,0.052065,-0.072911,-0.093931,-0.008934,-0.360722,-0.932630,0.008507,0.008031,0.023405,13.852343,-2.531857,-31.088257,,,,,,,
1504198045.905028,-0.009932,0.369591,0.504833,0.057400,-0.065508,-0.082193,-0.009261,-0.361234,-0.932429,0.001068,0.010419,0.021647,13.703173,-2.683118,-30.787476,,,,,,,
1504198045.915038,-0.010224,0.370166,0.504144,0.042608,-0.035571,-0.063058,-0.009531,-0.361770,-0.932219,-0.006399,0.003051,0.020659,13.703173,-2.683118,-30.787476,,,,,,,
1504198045.925048,-0.010192,0.370268,0.503638,0.010766,-0.003360,-0.045024,-0.009501,-0.361865,-0.932182,-0.002264,0.010272,0.010658,14.153215,-2.830655,-31.010254,,,,,,,
1504198045.935057,-0.010038,0.369971,0.503184,-0.018923,0.016069,-0.051513,-0.009359,-0.361588,-0.932291,-0.011118,0.009263,-0.000738,14.153215,-2.830655,-31.010254,,,,,,,
1504198045.945067,-0.009569,0.369651,0.502579,-0.019962,0.017149,-0.055786,-0.008922,-0.361290,-0.932411,0.003582,0.004158,-0.008355,13.627459,-2.533017,-31.013794,,,,,,,
1504198045.955077,-0.009117,0.369511,0.501825,-0.000805,0.002090,-0.070671,-0.008501,-0.361160,-0.932465,0.005938,0.003631,-0.006133,13.627459,-2.533017,-31.013794,,,,,,,
1504198045.965087,-0.009183,0.369811,0.500913,0.048936,-0.061169,-0.090754,-0.008562,-0.361439,-0.932356,0.000506,0.003224,-0.001543,14.003023,-2.756330,-31.011169,,,,,,,
1504198045.975096,-0.010212,0.370819,0.499766,0.126074,-0.170470,-0.116045,-0.009518,-0.362379,-0.931982,-0.001224,0.002089,-0.006143,14.003023,-2.756330,-31.011169,,,,,,,
1504198045.985106,-0.012263,0.372579,0.498343,0.209621,-0.278757,-0.141326,-0.011421,-0.364018,-0.931322,0.000236,0.006780,-0.010084,13.627382,-2.458158,-30.939392,,,,,,,
1504198045.995116,-0.014922,0.375178,0.496641,0.285050,-0.336891,-0.169913,-0.013883,-0.366438,-0.930339,0.001615,0.007765,-0.008245,13.627382,-2.458158,-30.939392,,,,,,,
1504198046.005126,-0.018017,0.378447,0.494714,0.338135,-0.384192,-0.193220,-0.016741,-0.369478,-0.929089,-0.001112,0.003862,-0.002003,13.627459,-2.533017,-31.013794,,,,,,,
1504198046.015135,-0.021350,0.382213,0.492472,0.384017,-0.406911,-0.230459,-0.019808,-0.372975,-0.927630,-0.006986,0.001912,-0.008604,13.627459,-2.533017,-31.013794,,,,,,,
1504198046.025145,-0.024409,0.386290,0.489755,0.408864,-0.396414,-0.275265,-0.022608,-0.376754,-0.926037,-0.005026,0.002533,-0.011325,13.328371,-2.759809,-30.787842,,,,,,,
1504198046.035155,-0.027229,0.390409,0.486552,0.406810,-0.410209,-0.313670,-0.025177,-0.380567,-0.924411,0.005112,0.004559,-0.011899,13.328371,-2.759809,-30.787842,,,,,,,
1504198046.045165,-0.030282,0.394395,0.483096,0.397007,-0.448468,-0.334968,-0.027953,-0.384250,-0.922806,0.005629,0.009601,-0.022446,13.103365,-2.985074,-31.161713,,,,,,,
1504198046.055144,-0.033638,0.398327,0.479582,0.393608,-0.472949,-0.334931,-0.030998,-0.387877,-0.921190,-0.003227,0.017225,-0.036925,13.103365,-2.985074,-31.161713,,,,,,,
1504198046.065154,-0.036955,0.402253,0.476330,0.402178,-0.449607,-0.305069,-0.033998,-0.391493,-0.919553,0.001863,0.033705,-0.037616,13.028185,-2.910413,-31.162445,,,,,,,
1504198046.075164,-0.039724,0.405918,0.473423,0.401524,-0.377173,-0.273176,-0.036486,-0.394862,-0.918016,0.008776,0.046077,-0.028121,13.028185,-2.910413,-31.162445,,,,,,,
1504198046.085173,-0.041363,0.409381,0.470700,0.396048,-0.250335,-0.257399,-0.037935,-0.398042,-0.916583,0.014589,0.048692,-0.029417,12.504915,-3.513074,-31.009247,,,,,,,
1504198046.095183,-0.041146,0.412439,0.467951,0.357752,-0.093381,-0.244935,-0.037685,-0.400845,-0.915371,0.035518,0.044461,-0.027623,12.504915,-3.513074,-31.009247,,,,,,,
1504198046.105193,-0.039072,0.415319,0.464999,0.294978,0.055278,-0.257051,-0.035741,-0.403482,-0.914289,0.046301,0.016305,-0.029802,12.655626,-3.887097,-31.156067,,,,,,,
1504198046.115203,-0.035688,0.417735,0.461580,0.216855,0.133765,-0.297890,-0.032613,-0.405691,-0.913428,0.050435,-0.002634,-0.023858,12.655626,-3.887097,-31.156067,,,,,,,
1504198046.125212,-0.032030,0.419023,0.457464,0.122072,0.115445,-0.363137,-0.029254,-0.406868,-0.913019,0.045398,0.014061,-0.013648,12.805300,-3.661725,-31.007385,,,,,,,
1504198046.135222,-0.028850,0.419359,0.452826,0.024207,0.106741,-0.436943,-0.026347,-0.407175,-0.912970,0.008906,0.008509,-0.023294,12.805300,-3.661725,-31.007385,,,,,,,
1504198046.145232,-0.025723,0.418941,0.447222,-0.083323,0.073630,-0.536339,-0.023496,-0.406794,-0.913218,0.010221,-0.005835,-0.027685,12.804949,-3.437024,-30.859070,,,,,,,
1504198046.155242,-0.022621,0.417386,0.440486,-0.199477,0.028871,-0.636797,-0.020677,-0.405372,-0.913918,0.007692,-0.018135,0.001015,12.804949,-3.437024,-30.859070,,,,,,,
1504198046.165251,-0.019201,0.414650,0.432705,-0.315318,0.029918,-0.726662,-0.017572,-0.402869,-0.915089,-0.015127,-0.020120,0.017094,12.729158,-3.212064,-31.010956,,,,,,,
1504198046.175261,-0.015209,0.410918,0.424256,-0.413866,0.081932,-0.779227,-0.013943,-0.399451,-0.916649,-0.024372,-0.003091,0.028526,12.729158,-3.212064,-31.010956,,,,,,,
1504198046.185271,-0.010663,0.406043,0.415605,-0.526657,0.115902,-0.785887,-0.009796,-0.394977,-0.918639,-0.027497,0.003757,0.038436,12.878405,-2.911389,-31.012817,,,,,,,
1504198046.195281,-0.007070,0.399813,0.407111,-0.666525,-0.019361,-0.768812,-0.006512,-0.389246,-0.921111,-0.021732,0.001917,0.027129,12.878405,-2.911389,-31.012817,,,,,,,
1504198046.205291,-0.006367,0.391949,0.399008,-0.833497,-0.329179,-0.731196,-0.005884,-0.381990,-0.924148,0.005900,-0.017577,-0.015656,13.102434,-2.610074,-31.164520,,,,,,,
1504198046.215300,-0.009303,0.382298,0.391434,-1.014560,-0.658077,-0.679694,-0.008631,-0.373053,-0.927770,0.037394,-0.041604,-0.080027,13.102434,-2.610074,-31.164520,,,,,,,
1504198046.225310,-0.014832,0.371183,0.384337,-1.147537,-0.848835,-0.635825,-0.013821,-0.362718,-0.931796,0.037182,-0.052397,-0.107434,12.725435,-1.861615,-31.246094,,,,,,,
1504198046.235320,-0.021041,0.359350,0.377501,-1.202144,-0.859065,-0.613486,-0.019696,-0.351665,-0.935919,0.027264,-0.038700,-0.078257,12.725435,-1.861615,-31.246094,,,,,,,
1504198046.245330,-0.026362,0.347567,0.370621,-1.184009,-0.731333,-0.622219,-0.024783,-0.340611,-0.939878,0.020343,-0.012050,0.001447,12.198183,-0.963971,-31.254150,,,,,,,
1504198046.255339,-0.030147,0.336537,0.363341,-1.095155,-0.589227,-0.668214,-0.028452,-0.330220,-0.943475,-0.004065,0.022741,0.068093,12.198183,-0.963971,-31.254150,,,,,,,
1504198046.265349,-0.033133,0.326843,0.355292,-0.956889,-0.561509,-0.750213,-0.031374,-0.321055,-0.946541,-0.039946,0.038417,0.093864,11.970476,-0.064374,-31.561432,,,,,,,
1504198046.275359,-0.036439,0.318726,0.346392,-0.800192,-0.633040,-0.836275,-0.034596,-0.313357,-0.949005,-0.047176,0.037142,0.073379,11.970476,-0.064374,-31.561432,,,,,,,
1504198046.285369,-0.040236,0.312172,0.336804,-0.651879,-0.682106,-0.896799,-0.038281,-0.307127,-0.950898,-0.032642,0.018919,0.032960,11.669115,0.384585,-31.715576,,,,,,,
1504198046.295378,-0.043932,0.307195,0.327042,-0.495816,-0.652478,-0.907255,-0.041862,-0.302387,-0.952266,-0.049309,-0.003537,0.015513,11.669115,0.384585,-31.715576,,,,,,,
1504198046.305388,-0.046761,0.303985,0.317483,-0.315760,-0.541024,-0.891128,-0.044601,-0.299325,-0.953108,-0.055405,-0.017005,0.030989,11.142717,0.757815,-32.019684,,,,,,,
1504198046.315398,-0.048590,0.302613,0.308205,-0.134668,-0.432777,-0.873927,-0.046364,-0.298015,-0.953435,-0.051705,-0.001637,0.058385,11.142717,0.757815,-32.019684,,,,,,,
1504198046.325408,-0.049548,0.302940,0.299128,0.030317,-0.341440,-0.863128,-0.047273,-0.298327,-0.953292,-0.033019,0.033877,0.057754,10.766863,1.280520,-31.724548,,,,,,,
1504198046.335417,-0.049502,0.304623,0.290213,0.154888,-0.235913,-0.855626,-0.047204,-0.299934,-0.952791,-0.022422,0.059638,0.037142,10.766863,1.280520,-31.724548,,,,,,,
1504198046.345427,-0.048703,0.307151,0.281454,0.224685,-0.171501,-0.841743,-0.046405,-0.302344,-0.952069,-0.031018,0.052466,0.030361,10.766069,1.505816,-31.876251,,,,,,,
1504198046.355437,-0.047849,0.309888,0.272992,0.237352,-0.168443,-0.809704,-0.045553,-0.304952,-0.951278,-0.038691,0.025045,0.014083,10.766069,1.505816,-31.876251,,,,,,,
1504198046.365447,-0.047050,0.312359,0.264986,0.199813,-0.161792,-0.759613,-0.044757,-0.307304,-0.950558,-0.035092,0.003471,-0.010929,10.540926,1.430255,-32.101227,,,,,,,
1504198046.375457,-0.046158,0.314196,0.257490,0.132578,-0.131455,-0.707480,-0.043883,-0.309052,-0.950032,-0.031953,-0.006103,-0.023402,10.540926,1.430255,-32.101227,,,,,,,
1504198046.385466,-0.044847,0.315303,0.250431,0.063485,-0.073387,-0.666074,-0.042622,-0.310105,-0.949746,-0.030681,-0.008636,-0.018027,10.466265,1.429477,-31.876404,,,,,,,
1504198046.395476,-0.043463,0.315886,0.243702,0.006936,-0.056967,-0.639515,-0.041300,-0.310659,-0.949624,-0.016546,-0.012171,-0.008857,10.466265,1.429477,-31.876404,,,,,,,
1504198046.405486,-0.042424,0.315752,0.237074,-0.058762,-0.124640,-0.624566,-0.040315,-0.310531,-0.949708,-0.004424,-0.022675,-0.012877,10.466158,1.429614,-31.951385,,,,,,,
1504198046.415496,-0.042810,0.314761,0.230636,-0.148698,-0.280570,-0.597761,-0.040695,-0.309590,-0.949999,0.011886,-0.036770,-0.031431,10.466158,1.429614,-31.951385,,,,,,,
1504198046.425505,-0.045235,0.312718,0.224629,-0.258286,-0.477921,-0.547435,-0.043026,-0.307646,-0.950528,0.026364,-0.065294,-0.061344,10.240770,1.578616,-31.953064,,,,,,,
1504198046.435515,-0.049534,0.309568,0.219225,-0.371891,-0.632634,-0.479046,-0.047160,-0.304647,-0.951297,0.029185,-0.085932,-0.076398,10.240770,1.578616,-31.953064,,,,,,,
1504198046.445525,-0.055100,0.305408,0.214525,-0.460412,-0.717227,-0.407534,-0.052524,-0.300682,-0.952277,0.033435,-0.083229,-0.069833,10.014116,2.103045,-32.182587,,,,,,,
1504198046.455535,-0.061257,0.300636,0.210435,-0.507848,-0.741407,-0.347799,-0.058473,-0.296127,-0.953357,0.045076,-0.070892,-0.034421,10.014116,2.103045,-32.182587,,,,,,,
1504198046.465544,-0.067592,0.295674,0.206798,-0.517606,-0.734976,-0.306199,-0.064610,-0.291385,-0.954421,0.055333,-0.057461,0.007247,9.339159,2.174716,-32.034821,,,,,,,
1504198046.475554,-0.073599,0.290875,0.203380,-0.491657,-0.680863,-0.288103,-0.070443,-0.286791,-0.955400,0.058572,-0.053358,0.030442,9.339159,2.174716,-32.034821,,,,,,,
1504198046.485564,-0.078718,0.286855,0.200022,-0.405535,-0.585667,-0.289189,-0.075424,-0.282937,-0.956168,0.059677,-0.050269,0.044639,8.962435,2.773334,-32.190247,,,,,,,
1504198046.495574,-0.082762,0.284094,0.196624,-0.263673,-0.468535,-0.307296,-0.079354,-0.280288,-0.956630,0.050576,-0.039826,0.053341,8.962435,2.773334,-32.190247,,,,,,,
1504198046.505583,-0.085680,0.282854,0.193156,-0.114462,-0.366382,-0.325363,-0.082175,-0.279097,-0.956740,0.041037,-0.019243,0.054625,8.961046,3.148929,-32.493103,,,,,,,
1504198046.515593,-0.088085,0.282989,0.189677,0.011749,-0.333312,-0.334810,-0.084472,-0.279227,-0.956502,0.034210,-0.007760,0.047750,8.961046,3.148929,-32.493103,,,,,,,
1504198046.525603,-0.090009,0.284463,0.186249,0.085196,-0.344586,-0.316519,-0.086275,-0.280642,-0.955927,0.024919,-0.012861,0.017252,8.286303,3.220294,-32.195282,,,,,,,
1504198046.535613,-0.092882,0.285874,0.183322,0.121040,-0.377949,-0.283308,-0.088984,-0.281996,-0.955280,0.020198,-0.020449,-0.014874,8.286303,3.220294,-32.195282,,,,,,,
1504198046.545623,-0.096267,0.287443,0.180816,0.138638,-0.420759,-0.243708,-0.092174,-0.283501,-0.954532,0.019176,-0.012489,-0.032056,8.061495,3.144290,-32.195282,,,,,,,
1504198046.555632,-0.100079,0.289169,0.178695,0.154291,-0.445429,-0.212683,-0.095763,-0.285155,-0.953685,0.024200,0.003493,-0.035832,8.061495,3.144290,-32.195282,,,,,,,
1504198046.565642,-0.103510,0.290633,0.176610,0.150928,-0.456064,-0.197729,-0.098993,-0.286558,-0.952935,0.025842,0.007307,-0.027442,8.061724,2.919742,-32.418610,,,,,,,
1504198046.575652,-0.107610,0.292133,0.174777,0.120938,-0.463289,-0.186027,-0.102852,-0.287995,-0.952093,0.028008,-0.002822,-0.020472,8.061724,2.919742,-32.418610,,,,,,,
1504198046.585662,-0.111703,0.293125,0.173141,0.066471,-0.453277,-0.159454,-0.106716,-0.288945,-0.951379,0.028881,-0.023021,-0.023383,7.461840,2.916888,-32.345093,,,,,,,
1504198046.595671,-0.115582,0.293503,0.171782,0.008983,-0.415544,-0.124396,-0.110393,-0.289307,-0.950850,0.020091,-0.038574,-0.019854,7.461840,2.916888,-32.345093,,,,,,,
1504198046.605681,-0.118550,0.294218,0.170669,-0.031018,-0.326807,-0.088330,-0.113190,-0.289992,-0.950312,0.011658,-0.034898,-0.007940,7.311983,2.766513,-32.494354,,,,,,,
1504198046.615691,-0.120564,0.293940,0.169921,-0.036427,-0.186131,-0.061903,-0.115113,-0.289725,-0.950162,0.002839,-0.018578,0.014478,7.311983,2.766513,-32.494354,,,,,,,
1504198046.625670,-0.121119,0.293791,0.169231,-0.018186,-0.042420,-0.066394,-0.115646,-0.289583,-0.950141,-0.006470,0.001939,0.039863,7.237108,2.766025,-32.419525,,,,,,,
1504198046.635680,-0.120558,0.293836,0.168295,-0.003444,0.045938,-0.099614,-0.115112,-0.289626,-0.950193,-0.009736,0.015487,0.057614,7.237108,2.766025,-32.419525,,,,,,,
1504198046.645690,-0.119888,0.293891,0.166952,-0.007373,0.056675,-0.150874,-0.114473,-0.289678,-0.950254,-0.005492,0.016393,0.049497,7.387224,2.766559,-32.344147,,,,,,,
1504198046.655699,-0.118963,0.293893,0.164931,-0.029755,0.024949,-0.206361,-0.113594,-0.289680,-0.950359,-0.004509,-0.001595,0.030269,7.387224,2.766559,-32.344147,,,,,,,
1504198046.665709,-0.118346,0.293702,0.162363,-0.054479,-0.025950,-0.251145,-0.113014,-0.289497,-0.950484,-0.005073,-0.026787,0.016936,7.387438,2.766253,-32.194122,,,,,,,
1504198046.675719,-0.118054,0.293354,0.159446,-0.070647,-0.063085,-0.277793,-0.112748,-0.289164,-0.950617,-0.007110,-0.038976,0.011911,7.387438,2.766253,-32.194122,,,,,,,
1504198046.685729,-0.118164,0.294039,0.156474,-0.062043,-0.064216,-0.290583,-0.112830,-0.289820,-0.950407,-0.008844,-0.029394,0.019575,7.463167,2.616138,-31.967804,,,,,,,
1504198046.695739,-0.117567,0.294083,0.153347,-0.018942,-0.016610,-0.299131,-0.112261,-0.289862,-0.950462,-0.011946,-0.001520,0.032722,7.463167,2.616138,-31.967804,,,,,,,
1504198046.705748,-0.116782,0.294295,0.150294,0.040432,0.059637,-0.317306,-0.111507,-0.290065,-0.950489,-0.012959,0.028774,0.048633,7.461535,2.992038,-32.420654,,,,,,,
1504198046.715758,-0.115372,0.294604,0.147062,0.080524,0.121134,-0.345095,-0.110157,-0.290361,-0.950556,-0.016979,0.047548,0.060083,7.461535,2.992038,-32.420654,,,,,,,
1504198046.725768,-0.113424,0.295063,0.143519,0.087277,0.148809,-0.373950,-0.108290,-0.290800,-0.950636,-0.016740,0.048246,0.051161,7.461885,2.991595,-32.195618,,,,,,,
1504198046.735778,-0.111429,0.295651,0.139668,0.065996,0.139418,-0.402788,-0.106374,-0.291363,-0.950680,-0.021998,0.031018,0.025662,7.461885,2.991595,-32.195618,,,,,,,
1504198046.745787,-0.109856,0.296268,0.135605,0.034826,0.100256,-0.420916,-0.104858,-0.291953,-0.950667,-0.029129,0.010626,0.003890,7.611879,2.992267,-32.195251,,,,,,,
1504198046.755797,-0.108628,0.296821,0.131413,0.008914,0.057844,-0.428354,-0.103674,-0.292482,-0.950635,-0.029825,0.000825,-0.004749,7.611879,2.992267,-32.195251,,,,,,,
1504198046.765807,-0.107895,0.297000,0.127105,-0.013737,0.018608,-0.443265,-0.102971,-0.292653,-0.950658,-0.033458,0.007771,-0.001109,7.462450,2.766589,-32.193939,,,,,,,
1504198046.775817,-0.107327,0.296569,0.122456,-0.029977,-0.025994,-0.469896,-0.102444,-0.292241,-0.950842,-0.027515,0.026616,0.001120,7.462450,2.766589,-32.193939,,,,,,,
1504198046.785826,-0.107022,0.295906,0.117441,-0.054914,-0.090766,-0.496508,-0.102176,-0.291607,-0.951066,-0.019299,0.026195,-0.005432,7.236498,3.140582,-32.197296,,,,,,,
1504198046.795836,-0.107554,0.295285,0.112174,-0.098411,-0.201220,-0.510263,-0.102701,-0.291013,-0.951191,-0.019446,0.008343,-0.017162,7.236498,3.140582,-32.197296,,,,,,,
1504198046.805846,-0.109227,0.294360,0.106838,-0.145428,-0.337242,-0.500498,-0.104321,-0.290128,-0.951285,-0.015751,-0.002231,-0.036981,7.461275,3.141894,-32.346771,,,,,,,
1504198046.815856,-0.112049,0.293036,0.101563,-0.184844,-0.454149,-0.486483,-0.107048,-0.288860,-0.951368,-0.012795,-0.003346,-0.052111,7.461275,3.141894,-32.346771,,,,,,,
1504198046.825865,-0.115715,0.291454,0.096395,-0.207873,-0.523238,-0.472525,-0.110588,-0.287345,-0.951422,-0.009957,0.005042,-0.044855,7.085756,3.439914,-32.199921,,,,,,,
1504198046.835875,-0.119595,0.289799,0.091244,-0.210066,-0.531742,-0.474648,-0.114335,-0.285760,-0.951456,-0.005065,0.013207,-0.026266,7.085756,3.439914,-32.199921,,,,,,,
1504198046.845885,-0.123283,0.288121,0.086024,-0.196925,-0.495609,-0.485363,-0.117902,-0.284151,-0.951503,-0.002963,0.015642,-0.001134,6.710375,3.588229,-32.201965,,,,,,,
1504198046.855861,-0.126349,0.286920,0.080634,-0.172924,-0.441442,-0.504630,-0.120862,-0.283000,-0.951474,-0.003161,0.011164,0.019407,6.710375,3.588229,-32.201965,,,,,,,
1504198046.865871,-0.128886,0.286097,0.075032,-0.142535,-0.393713,-0.531346,-0.123305,-0.282210,-0.951395,-0.008867,0.008071,0.030940,6.259554,3.961047,-32.130920,,,,,,,
1504198046.875880,-0.130997,0.285645,0.069201,-0.113316,-0.358763,-0.558042,-0.125330,-0.281776,-0.951259,-0.008825,0.006065,0.037456,6.259554,3.961047,-32.130920,,,,,,,
1504198046.885890,-0.132878,0.285506,0.063161,-0.092822,-0.345057,-0.580445,-0.127124,-0.281643,-0.951061,-0.012174,-0.000599,0.039104,6.034258,4.035190,-32.207031,,,,,,,
1504198046.895900,-0.134693,0.285458,0.056937,-0.084192,-0.345110,-0.599643,-0.128852,-0.281597,-0.950842,-0.013162,0.006755,0.029745,6.034258,4.035190,-32.207031,,,,,,,
1504198046.905910,-0.136450,0.285255,0.050435,-0.101148,-0.347075,-0.626353,-0.130530,-0.281403,-0.950671,-0.012460,0.022125,0.023180,5.959169,3.885455,-32.506134,,,,,,,
1504198046.915919,-0.138055,0.284756,0.043496,-0.138322,-0.350990,-0.666972,-0.132075,-0.280923,-0.950599,-0.008016,0.032694,0.022468,5.959169,3.885455,-32.506134,,,,,,,
1504198046.925929,-0.139550,0.283912,0.035968,-0.185089,-0.361206,-0.719337,-0.133529,-0.280113,-0.950635,-0.002107,0.032524,0.018475,5.809511,3.884326,-32.281464,,,,,,,
1504198046.935939,-0.140990,0.282750,0.027795,-0.234039,-0.378861,-0.773829,-0.134944,-0.278998,-0.950763,0.003611,0.014731,0.021121,5.809511,3.884326,-32.281464,,,,,,,
1504198046.945949,-0.142459,0.281214,0.019052,-0.287274,-0.392230,-0.817661,-0.136401,-0.277523,-0.950987,0.008227,-0.011601,0.031370,5.433504,4.108233,-32.584106,,,,,,,
1504198046.955958,-0.143773,0.279133,0.009956,-0.348939,-0.377848,-0.838074,-0.137732,-0.275523,-0.951376,0.009360,-0.028799,0.039099,5.433504,4.108233,-32.584106,,,,,,,
1504198046.965968,-0.144826,0.276415,0.000677,-0.416982,-0.351707,-0.844642,-0.138841,-0.272909,-0.951968,0.004534,-0.030894,0.047916,5.133623,4.330997,-32.136505,,,,,,,
1504198046.975978,-0.145591,0.272968,-0.008776,-0.493562,-0.326559,-0.852291,-0.139706,-0.269591,-0.952787,0.003903,-0.020952,0.050718,5.133623,4.330997,-32.136505,,,,,,,
1504198046.985988,-0.146232,0.268812,-0.018517,-0.565999,-0.324876,-0.872700,-0.140479,-0.265587,-0.953797,0.008078,-0.008141,0.054505,4.757265,4.779605,-32.290802,,,,,,,
1504198046.995997,-0.146844,0.263994,-0.028515,-0.633161,-0.325376,-0.884557,-0.141247,-0.260938,-0.954966,0.018536,-0.008715,0.054774,4.757265,4.779605,-32.290802,,,,,,,
1504198047.006007,-0.147535,0.258573,-0.038450,-0.690920,-0.328122,-0.860102,-0.142114,-0.255701,-0.956254,0.030236,-0.026312,0.059662,4.456591,5.227664,-31.994904,,,,,,,
1504198047.016017,-0.148363,0.252541,-0.048107,-0.746536,-0.324502,-0.827115,-0.143131,-0.249865,-0.957643,0.039676,-0.037794,0.067629,4.456591,5.227664,-31.994904,,,,,,,
1504198047.026027,-0.149226,0.246053,-0.057570,-0.787095,-0.312469,-0.804791,-0.144195,-0.243577,-0.959103,0.039107,-0.049346,0.076199,4.230577,5.676501,-31.923859,,,,,,,
1504198047.036037,-0.149826,0.239324,-0.066978,-0.802815,-0.275047,-0.801682,-0.145012,-0.237046,-0.960615,0.026985,-0.089675,0.098692,4.230577,5.676501,-31.923859,,,,,,,
1504198047.046046,-0.149552,0.235087,-0.075197,-0.406470,-0.137775,-0.683823,-0.144897,-0.232927,-0.961639,0.031402,-0.071562,0.124130,3.854479,6.199527,-31.778717,,,,,,,
1504198047.056056,-0.149259,0.236621,-0.079852,0.243432,-0.072036,-0.391412,-0.144562,-0.234419,-0.961327,0.045120,-0.058672,0.096779,3.854479,6.199527,-31.778717,,,,,,,
1504198047.066066,-0.149828,0.242417,-0.081330,0.616616,-0.114739,-0.196423,-0.144903,-0.240050,-0.959885,0.106650,-0.060274,-0.054535,3.930193,6.049411,-31.552399,,,,,,,
1504198047.076076,-0.151840,0.248626,-0.082701,0.559041,-0.275117,-0.247475,-0.146606,-0.246072,-0.958100,0.125839,-0.011557,-0.137054,3.930193,6.049411,-31.552399,,,,,,,
1504198047.086085,-0.155453,0.253050,-0.085598,0.339249,-0.489489,-0.376634,-0.149897,-0.250358,-0.956479,0.046504,-0.019890,-0.107837,3.630434,5.823504,-31.776459,,,,,,,
1504198047.096095,-0.161046,0.255801,-0.089917,0.165032,-0.724512,-0.477925,-0.155133,-0.253021,-0.954942,-0.003558,-0.024903,-0.073622,3.630434,5.823504,-31.776459,,,,,,,
1504198047.106105,-0.168334,0.257475,-0.095056,0.061471,-0.898365,-0.529033,-0.162017,-0.254640,-0.953367,0.014923,0.008882,-0.092684,3.406069,5.522647,-31.849762,,,,,,,
1504198047.116115,-0.176923,0.258417,-0.100770,-0.022639,-1.036155,-0.571632,-0.170157,-0.255550,-0.951704,0.034751,0.031276,-0.106127,3.406069,5.522647,-31.849762,,,,,,,
1504198047.126124,-0.186457,0.258748,-0.107167,-0.096817,-1.142045,-0.629213,-0.179207,-0.255870,-0.949955,0.044457,0.024059,-0.095897,2.431307,5.517962,-31.702179,,,,,,,
1504198047.136134,-0.196807,0.258629,-0.114357,-0.159166,-1.241628,-0.695325,-0.189036,-0.255755,-0.948079,0.045237,0.012011,-0.081126,2.431307,5.517962,-31.702179,,,,,,,
1504198047.146144,-0.207868,0.258020,-0.122331,-0.236370,-1.328307,-0.757215,-0.199543,-0.255167,-0.946083,0.046925,-0.003851,-0.077935,1.830812,5.665423,-31.779785,,,,,,,
1504198047.156154,-0.219441,0.256587,-0.131034,-0.347625,-1.392347,-0.801058,-0.210557,-0.253781,-0.944066,0.043046,-0.005863,-0.084361,1.830812,5.665423,-31.779785,,,,,,,
1504198047.166163,-0.231516,0.254228,-0.140350,-0.457894,-1.458539,-0.832087,-0.222078,-0.251498,-0.942035,0.036683,0.009845,-0.085904,0.706011,5.585361,-31.781982,,,,,,,
1504198047.176173,-0.244147,0.251002,-0.150207,-0.562864,-1.525846,-0.857768,-0.234154,-0.248375,-0.939937,0.031136,0.016197,-0.065068,0.706011,5.585361,-31.781982,,,,,,,
1504198047.186183,-0.257142,0.247177,-0.160715,-0.638684,-1.563534,-0.904799,-0.246588,-0.244668,-0.937727,0.034079,0.004677,-0.039430,-0.043867,5.806094,-31.335510,,,,,,,
1504198047.196193,-0.269865,0.243384,-0.171901,-0.647749,-1.533561,-0.964642,-0.258744,-0.240988,-0.935402,0.046753,-0.013590,-0.018623,-0.043867,5.806094,-31.335510,,,,,,,
1504198047.206203,-0.281906,0.239859,-0.183864,-0.661813,-1.471561,-1.040561,-0.270223,-0.237566,-0.933028,0.043279,-0.035383,-0.000581,-1.169798,6.176044,-31.341095,,,,,,,
1504198047.216182,-0.292947,0.236441,-0.196673,-0.696017,-1.388092,-1.108014,-0.280741,-0.234244,-0.930760,0.035135,-0.040216,0.009495,-1.169798,6.176044,-31.341095,,,,,,,
1504198047.226192,-0.303071,0.233147,-0.210051,-0.697176,-1.297455,-1.158344,-0.290378,-0.231041,-0.928602,0.043170,-0.038017,0.025022,-2.595579,6.619189,-31.122986,,,,,,,
1504198047.236201,-0.312229,0.230104,-0.223912,-0.699466,-1.212140,-1.204397,-0.299084,-0.228079,-0.926568,0.055401,-0.044550,0.030389,-2.595579,6.619189,-31.122986,,,,,,,
1504198047.246211,-0.320451,0.227447,-0.238215,-0.678252,-1.124884,-1.253614,-0.306882,-0.225491,-0.924650,0.060147,-0.051501,0.036710,-3.196669,7.141192,-30.978424,,,,,,,
1504198047.256221,-0.327924,0.225560,-0.252964,-0.625192,-1.066648,-1.316602,-0.313920,-0.223652,-0.922732,0.076249,-0.058040,0.054568,-3.196669,7.141192,-30.978424,,,,,,,
1504198047.266231,-0.334952,0.224756,-0.268087,-0.530703,-1.034322,-1.384809,-0.320456,-0.222868,-0.920673,0.085776,-0.072145,0.061465,-4.321135,7.060687,-30.755615,,,,,,,
1504198047.276240,-0.341922,0.224993,-0.283746,-0.470694,-1.052846,-1.466862,-0.326848,-0.223099,-0.918367,0.083272,-0.091873,0.076570,-4.321135,7.060687,-30.755615,,,,,,,
1504198047.286250,-0.349031,0.226216,-0.299737,-0.392668,-1.081094,-1.521139,-0.333274,-0.224292,-0.915763,0.083961,-0.102674,0.104789,-4.770720,6.983371,-30.606140,,,,,,,
1504198047.296260,-0.356216,0.228339,-0.315981,-0.332669,-1.078344,-1.566939,-0.339679,-0.226359,-0.912896,0.080355,-0.056767,0.132364,-4.770720,6.983371,-30.606140,,,,,,,
1504198047.306270,-0.363026,0.231142,-0.332175,-0.280996,-1.025481,-1.574414,-0.345660,-0.229089,-0.909965,0.059909,-0.021888,0.153038,-5.970442,7.052371,-30.309692,,,,,,,
1504198047.316279,-0.368307,0.234125,-0.348049,-0.274371,-0.840161,-1.536303,-0.350214,-0.231992,-0.907485,0.027003,-0.030825,0.181350,-5.970442,7.052371,-30.309692,,,,,,,
1504198047.326289,-0.371249,0.236937,-0.363566,-0.285402,-0.593958,-1.497262,-0.352644,-0.234726,-0.905840,0.033613,-0.033981,0.206240,-6.420408,7.125049,-30.161346,,,,,,,
1504198047.336299,-0.371839,0.239958,-0.378601,-0.232471,-0.357866,-1.463430,-0.352919,-0.237662,-0.904967,0.038466,-0.051156,0.223677,-6.420408,7.125049,-30.161346,,,,,,,
1504198047.346309,-0.370766,0.243585,-0.393271,-0.160932,-0.215668,-1.460355,-0.351634,-0.241183,-0.904535,0.035502,-0.070249,0.215708,-6.794691,6.972919,-29.936157,,,,,,,
1504198047.356319,-0.369025,0.248079,-0.407960,-0.072964,-0.182249,-1.502957,-0.349664,-0.245542,-0.904126,0.050088,-0.057879,0.194074,-6.794691,6.972919,-29.936157,,,,,,,
1504198047.366328,-0.367625,0.253529,-0.423074,-0.004887,-0.257319,-1.581694,-0.347911,-0.250822,-0.903353,0.063198,-0.020205,0.177767,-7.393095,6.519626,-29.634247,,,,,,,
1504198047.376338,-0.367127,0.259517,-0.438704,0.021049,-0.382154,-1.633732,-0.346916,-0.256614,-0.902108,0.077171,0.029563,0.156029,-7.393095,6.519626,-29.634247,,,,,,,
1504198047.386348,-0.368439,0.265408,-0.454341,-0.006374,-0.594008,-1.608856,-0.347549,-0.262303,-0.900226,0.089050,0.039295,0.137729,-7.843168,6.592456,-29.560944,,,,,,,
1504198047.396358,-0.372526,0.270714,-0.469780,-0.054924,-0.904803,-1.571033,-0.350713,-0.267419,-0.897489,0.112585,0.027856,0.108167,-7.843168,6.592456,-29.560944,,,,,,,
1504198047.406367,-0.380806,0.275740,-0.485388,-0.096996,-1.373303,-1.587358,-0.357628,-0.272259,-0.893295,0.132210,0.010174,0.074646,-8.216169,5.840610,-29.481201,,,,,,,
1504198047.416377,-0.394231,0.280575,-0.501433,-0.151458,-1.932262,-1.617422,-0.369078,-0.276908,-0.887188,0.146727,-0.005669,0.039578,-8.216169,5.840610,-29.481201,,,,,,,
1504198047.426387,-0.413808,0.285091,-0.517813,-0.217445,-2.579603,-1.617462,-0.385869,-0.281245,-0.878639,0.159001,-0.034231,-0.003410,-9.565596,5.833789,-29.109558,,,,,,,
1504198047.436397,-0.440345,0.289355,-0.533692,-0.247942,-3.275271,-1.537300,-0.408532,-0.285334,-0.866998,0.165734,-0.047628,-0.061407,-9.565596,5.833789,-29.109558,,,,,,,
1504198047.446406,-0.473859,0.293557,-0.548443,-0.241029,-3.939317,-1.419770,-0.436802,-0.289359,-0.851748,0.108967,-0.039178,-0.080655,-11.362730,5.223910,-28.209442,,,,,,,
1504198047.456416,-0.513819,0.297999,-0.561640,-0.191890,-4.516350,-1.286310,-0.469844,-0.293608,-0.832491,0.034389,-0.017046,-0.059675,-11.362730,5.223910,-28.209442,,,,,,,
1504198047.466426,-0.559220,0.302832,-0.572915,-0.112038,-4.973248,-1.128458,-0.506384,-0.298225,-0.809097,0.022436,-0.021569,-0.034669,-13.835829,5.135547,-27.089966,,,,,,,
1504198047.476436,-0.608935,0.308305,-0.581623,0.010376,-5.288813,-0.934489,-0.545024,-0.303444,-0.781582,0.027507,-0.058174,0.015148,-13.835829,5.135547,-27.089966,,,,,,,
1504198047.486445,-0.661031,0.313734,-0.588139,0.066222,-5.416236,-0.783663,-0.583964,-0.308612,-0.750829,0.041819,-0.114010,0.069631,-16.307188,4.671130,-25.442657,,,,,,,
1504198047.496455,-0.713146,0.318753,-0.594034,0.014154,-5.365764,-0.745416,-0.621261,-0.313382,-0.718210,0.066711,-0.131244,0.109491,-16.307188,4.671130,-25.442657,,,,,,,
1504198047.506465,-0.762646,0.323127,-0.600590,-0.142336,-5.063962,-0.760096,-0.655084,-0.317533,-0.685593,0.098550,-0.091509,0.102203,-18.628401,4.506183,-23.197235,,,,,,,
1504198047.516475,-0.807247,0.326445,-0.609191,-0.416850,-4.611946,-0.829682,-0.684236,-0.320678,-0.654971,0.145936,-0.026429,0.057590,-18.628401,4.506183,-23.197235,,,,,,,
1504198047.526485,-0.846015,0.328792,-0.620786,-0.730347,-4.127592,-0.946359,-0.708542,-0.322900,-0.627459,0.188461,0.001443,0.032259,-20.949018,3.966693,-21.173981,,,,,,,
1504198047.536494,-0.879324,0.330629,-0.635813,-1.033579,-3.718938,-1.103446,-0.728586,-0.324638,-0.603135,0.222330,-0.012291,0.007584,-20.949018,3.966693,-21.173981,,,,,,,
1504198047.546504,-0.908477,0.332577,-0.654373,-1.313284,-3.462815,-1.301852,-0.745358,-0.326480,-0.581251,0.245236,-0.015134,-0.020723,-22.445127,3.581073,-19.224823,,,,,,,
1504198047.556514,-0.935069,0.335142,-0.676407,-1.563239,-3.363568,-1.512738,-0.759873,-0.328903,-0.560728,0.254014,0.010055,-0.051149,-22.445127,3.581073,-19.224823,,,,,,,
1504198047.566524,-0.960472,0.338706,-0.701689,-1.778887,-3.381812,-1.730830,-0.772905,-0.332267,-0.540571,0.259843,0.024161,-0.078051,-23.567030,3.422427,-17.426422,,,,,,,
1504198047.576533,-0.985509,0.343356,-0.729616,-1.958867,-3.449411,-1.906076,-0.784899,-0.336649,-0.520193,0.268801,0.014780,-0.080683,-23.567030,3.422427,-17.426422,,,,,,,
1504198047.586543,-1.010151,0.349081,-0.759836,-2.110048,-3.501292,-2.054616,-0.795833,-0.342034,-0.499663,0.282390,0.002557,-0.072389,-24.762892,2.664035,-15.923737,,,,,,,
1504198047.596553,-1.035037,0.355978,-0.791808,-2.229894,-3.624847,-2.182694,-0.805972,-0.348507,-0.478489,0.290454,0.023770,-0.061474,-24.762892,2.664035,-15.923737,,,,,,,
1504198047.606563,-1.060621,0.363867,-0.824619,-2.257331,-3.737545,-2.210295,-0.815524,-0.355891,-0.456358,0.294253,0.024699,-0.049730,-25.807539,1.829974,-13.745117,,,,,,,
1504198047.616572,-1.088180,0.372317,-0.856590,-2.215807,-3.976646,-2.147892,-0.825096,-0.363775,-0.432301,0.290108,-0.012156,-0.016673,-25.807539,1.829974,-13.745117,,,,,,,
1504198047.626582,-1.118798,0.381257,-0.888074,-2.200493,-4.307147,-2.110991,-0.834984,-0.372088,-0.405404,0.284264,0.015017,0.011742,-26.476835,0.997165,-11.340546,,,,,,,
1504198047.636592,-1.154191,0.391837,-0.919326,-2.168018,-4.840118,-2.202859,-0.845159,-0.381887,-0.373989,0.289572,0.027150,0.024166,-26.476835,0.997165,-11.340546,,,,,,,
1504198047.646602,-1.193674,0.404838,-0.950073,-2.087254,-5.226399,-2.329059,-0.854575,-0.393870,-0.338480,0.292853,0.052881,0.029764,-27.295698,-0.061170,-9.009644,,,,,,,
1504198047.656611,-1.236325,0.420769,-0.980420,-2.042045,-5.555854,-2.508790,-0.862193,-0.408462,-0.299637,0.293330,0.026168,0.063171,-27.295698,-0.061170,-9.009644,,,,,,,
1504198047.666621,-1.281196,0.439747,-1.010563,-2.020616,-5.790276,-2.688731,-0.867179,-0.425710,-0.258400,0.318794,0.058950,0.069313,-27.663847,-1.043698,-6.078186,,,,,,,
1504198047.676631,-1.326784,0.461511,-1.040185,-1.986249,-5.853277,-2.834794,-0.868856,-0.445302,-0.216322,0.342596,0.058720,0.053312,-27.663847,-1.043698,-6.078186,,,,,,,
1504198047.686641,-1.371685,0.485370,-1.068546,-1.917790,-5.731242,-2.888261,-0.867027,-0.466535,-0.174953,0.354485,0.028516,0.078853,-27.655149,-2.400723,-2.542969,,,,,,,
1504198047.696651,-1.413327,0.510579,-1.095033,-1.813949,-5.283485,-2.882466,-0.861667,-0.488683,-0.136819,0.355441,0.064046,0.086282,-27.655149,-2.400723,-2.542969,,,,,,,
1504198047.706660,-1.448504,0.536367,-1.119286,-1.694039,-4.535405,-2.836612,-0.853151,-0.511016,-0.104857,0.339052,0.039245,0.154372,-27.496305,-4.355298,0.097076,,,,,,,
1504198047.716670,-1.476410,0.563318,-1.142198,-1.635512,-3.796290,-2.905060,-0.841725,-0.533995,-0.079684,0.286228,0.006575,0.289874,-27.496305,-4.355298,0.097076,,,,,,,
1504198047.726680,-1.497923,0.591964,-1.163372,-1.485759,-3.161227,-3.034009,-0.827644,-0.557992,-0.060420,0.226096,0.034906,0.341625,-26.589048,-5.855893,2.435577,,,,,,,
1504198047.736690,-1.515146,0.622192,-1.182134,-1.297859,-2.672498,-3.130611,-0.811345,-0.582817,-0.045198,0.175756,0.074135,0.345857,-26.589048,-5.855893,2.435577,,,,,,,
1504198047.746699,-1.529338,0.653245,-1.198474,-1.114424,-2.315911,-3.185360,-0.793434,-0.607766,-0.032913,0.135856,0.085275,0.339554,-25.831785,-8.029920,3.653809,,,,,,,
1504198047.756709,-1.542196,0.685371,-1.212552,-0.946955,-2.099831,-3.259101,-0.773868,-0.632960,-0.022139,0.104297,0.057994,0.347609,-25.831785,-8.029920,3.653809,,,,,,,
1504198047.766719,-1.554546,0.717791,-1.223784,-0.732160,-1.920454,-3.253708,-0.753161,-0.657722,-0.012240,0.064807,0.037178,0.335284,-24.625242,-10.051480,4.646973,,,,,,,
1504198047.776729,-1.567104,0.750167,-1.232335,-0.563751,-1.797183,-3.236555,-0.731570,-0.681761,-0.002701,0.031176,0.036665,0.328217,-24.625242,-10.051480,4.646973,,,,,,,
1504198047.786738,-1.580355,0.782211,-1.238513,-0.415294,-1.744117,-3.181954,-0.709325,-0.704849,0.006781,0.002599,0.055985,0.308512,-23.570005,-11.772962,5.262512,,,,,,,
1504198047.796748,-1.595694,0.813053,-1.241800,-0.234958,-1.781987,-3.033206,-0.687071,-0.726389,0.017110,-0.031862,0.085474,0.286159,-23.570005,-11.772962,5.262512,,,,,,,
1504198047.806758,-1.614878,0.841726,-1.241578,-0.031566,-1.957590,-2.807322,-0.665530,-0.745794,0.029357,-0.055784,0.080419,0.266511,-22.515425,-13.194592,5.950836,,,,,,,
1504198047.816737,-1.639958,0.868375,-1.237676,0.144087,-2.300206,-2.635629,-0.644523,-0.763280,0.044648,-0.067574,0.059483,0.244644,-22.515425,-13.194592,5.950836,,,,,,,
1504198047.826747,-1.671175,0.893666,-1.230373,0.284943,-2.641387,-2.544054,-0.623405,-0.779374,0.062788,-0.086281,0.047990,0.204379,-21.235350,-14.541104,7.089142,,,,,,,
1504198047.836757,-1.707685,0.917950,-1.219825,0.379915,-2.856439,-2.463455,-0.601767,-0.794358,0.082894,-0.109216,0.027589,0.192512,-21.235350,-14.541104,7.089142,,,,,,,
1504198047.846767,-1.747661,0.941191,-1.206145,0.465703,-2.897702,-2.402392,-0.579641,-0.808260,0.103600,-0.137736,-0.005858,0.208182,-19.805998,-15.736493,8.001648,,,,,,,
1504198047.856787,-1.789554,0.963069,-1.189140,0.561300,-2.761121,-2.311738,-0.557395,-0.820948,0.123918,-0.166451,-0.016546,0.242598,-19.805998,-15.736493,8.001648,,,,,,,
1504198047.866797,-1.832271,0.982873,-1.168630,0.682066,-2.508659,-2.161470,-0.535782,-0.832094,0.143376,-0.200820,-0.046751,0.278484,-18.301451,-16.558041,9.661560,,,,,,,
1504198047.876807,-1.875747,1.000737,-1.145025,0.752278,-2.327142,-2.043187,-0.514782,-0.841869,0.162038,-0.235584,-0.071370,0.303478,-18.301451,-16.558041,9.661560,,,,,,,
1504198047.886817,-1.920077,1.016390,-1.119016,0.834533,-2.216096,-1.885265,-0.494652,-0.850213,0.180159,-0.256279,-0.072730,0.290743,-17.173262,-17.155239,10.793884,,,,,,,
1504198047.896827,-1.966379,1.029691,-1.090780,0.898856,-2.219975,-1.738912,-0.475305,-0.857140,0.198485,-0.276862,-0.034965,0.245011,-17.173262,-17.155239,10.793884,,,,,,,
1504198047.906837,-2.014785,1.041053,-1.060457,0.974098,-2.226019,-1.645907,-0.456320,-0.862937,0.217054,-0.289301,-0.037546,0.207994,-15.295347,-17.823452,11.628571,,,,,,,
1504198047.916847,-2.065284,1.050184,-1.027105,1.115189,-2.128190,-1.540162,-0.437828,-0.867515,0.236062,-0.303414,-0.092813,0.196982,-15.295347,-17.823452,11.628571,,,,,,,
1504198047.926857,-2.116268,1.056855,-0.991265,1.232539,-1.927873,-1.430370,-0.420271,-0.870814,0.255059,-0.328523,-0.121099,0.202842,-14.244078,-17.745678,12.605652,,,,,,,
1504198047.936866,-2.166221,1.061012,-0.954367,1.313399,-1.733682,-1.287540,-0.404011,-0.872850,0.273694,-0.340221,-0.162047,0.219256,-14.244078,-17.745678,12.605652,,,,,,,
1504198047.946876,-2.214555,1.062995,-0.918144,1.312281,-1.654960,-1.151053,-0.388930,-0.873816,0.291854,-0.349290,-0.169107,0.200913,-12.741987,-18.040737,13.511627,,,,,,,
1504198047.956886,-2.260088,1.063142,-0.884887,1.244102,-1.655664,-0.959038,-0.375144,-0.873887,0.309173,-0.351525,-0.144042,0.146332,-12.741987,-18.040737,13.511627,,,,,,,
1504198047.966896,-2.303646,1.061764,-0.855247,1.156713,-1.809624,-0.797740,-0.362220,-0.873216,0.326021,-0.348305,-0.123564,0.092283,-11.615599,-17.962765,14.563812,,,,,,,
1504198047.976904,-2.345650,1.059625,-0.829499,1.029756,-2.001575,-0.679140,-0.349544,-0.872172,0.342249,-0.336765,-0.100805,0.043493,-11.615599,-17.962765,14.563812,,,,,,,
1504198047.986914,-2.387626,1.057553,-0.805656,0.949802,-2.139423,-0.699316,-0.336111,-0.871156,0.357933,-0.326090,-0.105894,0.018456,-10.864744,-17.811031,15.389587,,,,,,,
1504198047.996924,-2.428774,1.055066,-0.781946,0.982917,-1.996912,-0.693106,-0.322518,-0.869933,0.373094,-0.317176,-0.123414,0.029707,-10.864744,-17.811031,15.389587,,,,,,,
1504198048.006934,-2.467203,1.051182,-0.758232,1.068234,-1.703561,-0.643307,-0.310053,-0.868011,0.387846,-0.322515,-0.180634,0.089999,-9.664335,-17.432430,16.289734,,,,,,,
1504198048.016944,-2.501786,1.046149,-0.735086,1.109070,-1.368286,-0.592592,-0.299062,-0.865501,0.401833,-0.319621,-0.223961,0.148490,-9.664335,-17.432430,16.289734,,,,,,,
1504198048.026953,-2.532021,1.040697,-0.713602,1.055455,-1.105756,-0.546182,-0.289475,-0.862757,0.414554,-0.319213,-0.214178,0.145367,-8.838621,-17.354931,16.891235,,,,,,,
1504198048.036963,-2.558053,1.035308,-0.694590,0.966933,-0.925012,-0.477273,-0.281144,-0.860020,0.425822,-0.311232,-0.167843,0.105901,-8.838621,-17.354931,16.891235,,,,,,,
1504198048.046973,-2.580457,1.029879,-0.678275,0.888403,-0.813640,-0.383675,-0.274015,-0.857237,0.435960,-0.296572,-0.125353,0.058684,-8.089125,-16.977154,17.190247,,,,,,,
1504198048.056983,-2.599976,1.024558,-0.664367,0.811808,-0.747006,-0.322015,-0.267801,-0.854485,0.445127,-0.272009,-0.103187,0.020465,-8.089125,-16.977154,17.190247,,,,,,,
1504198048.066993,-2.618431,1.019545,-0.651258,0.771594,-0.721075,-0.346681,-0.261679,-0.851870,0.453699,-0.237955,-0.111860,-0.000329,-7.413862,-16.675457,17.864685,,,,,,,
1504198048.077003,-2.636794,1.014771,-0.637457,0.776888,-0.634735,-0.414070,-0.255267,-0.849360,0.461981,-0.211987,-0.147573,-0.015524,-7.413862,-16.675457,17.864685,,,,,,,
1504198048.087013,-2.654339,1.009882,-0.622997,0.799533,-0.489968,-0.444174,-0.249064,-0.846769,0.470052,-0.201543,-0.177568,-0.018330,-7.487806,-16.826687,18.315613,,,,,,,
1504198048.097023,-2.669973,1.004845,-0.608992,0.783516,-0.344937,-0.423109,-0.243620,-0.844079,0.477682,-0.199846,-0.191840,-0.010915,-7.487806,-16.826687,18.315613,,,,,,,
1504198048.107031,-2.683409,0.999918,-0.596396,0.727328,-0.266741,-0.369974,-0.239017,-0.841427,0.484636,-0.202404,-0.192677,-0.019395,-7.039473,-16.074963,18.461121,,,,,,,
1504198048.117041,-2.694766,0.995217,-0.585925,0.649048,-0.258732,-0.278328,-0.235204,-0.838877,0.490881,-0.211115,-0.155263,-0.053320,-7.039473,-16.074963,18.461121,,,,,,,
1504198048.127051,-2.703968,0.990693,-0.578381,0.563754,-0.300793,-0.143909,-0.232283,-0.836406,0.496457,-0.218812,-0.115483,-0.089338,-6.664183,-15.924176,18.910919,,,,,,,
1504198048.137061,-2.711212,0.986221,-0.573877,0.491055,-0.364278,-0.001958,-0.230239,-0.833946,0.501521,-0.223283,-0.095009,-0.112880,-6.664183,-15.924176,18.910919,,,,,,,
1504198048.147070,-2.716487,0.981926,-0.572198,0.407003,-0.390355,0.122828,-0.229065,-0.831569,0.505987,-0.228607,-0.074544,-0.122930,-6.588987,-15.774594,19.284973,,,,,,,
1504198048.157080,-2.719533,0.977916,-0.572948,0.329946,-0.353601,0.229370,-0.228887,-0.829335,0.509720,-0.230814,-0.057842,-0.114227,-6.588987,-15.774594,19.284973,,,,,,,
1504198048.167090,-2.720044,0.973907,-0.575822,0.288494,-0.265993,0.338019,-0.229985,-0.827088,0.512867,-0.228190,-0.046203,-0.086872,-6.514067,-15.699399,19.359619,,,,,,,
1504198048.177100,-2.717778,0.970388,-0.580806,0.188580,-0.168284,0.418796,-0.232342,-0.825105,0.514994,-0.214908,-0.057845,-0.051264,-6.514067,-15.699399,19.359619,,,,,,,
1504198048.187110,-2.714681,0.966805,-0.586893,0.180506,-0.208770,0.475426,-0.235159,-0.823075,0.516960,-0.193766,-0.134688,-0.054374,-6.289442,-15.324140,19.732361,,,,,,,
1504198048.197119,-2.711593,0.963730,-0.594182,0.065232,-0.327202,0.508524,-0.237808,-0.821325,0.518529,-0.196930,-0.179209,-0.092748,-6.289442,-15.324140,19.732361,,,,,,,
1504198048.207129,-2.708822,0.962692,-0.602692,-0.173476,-0.450933,0.466700,-0.239601,-0.820733,0.518642,-0.188667,-0.144722,-0.099819,-6.364637,-15.249478,19.731598,,,,,,,
1504198048.217139,-2.706841,0.964506,-0.611695,-0.444946,-0.575393,0.360777,-0.240001,-0.821767,0.516815,-0.080907,-0.131724,-0.176452,-6.364637,-15.249478,19.731598,,,,,,,
1504198048.227149,-2.706620,0.968501,-0.620123,-0.584029,-0.706243,0.227341,-0.238730,-0.824037,0.513781,0.048270,-0.102049,-0.266634,-6.589216,-15.325788,19.881622,,,,,,,
1504198048.237159,-2.708233,0.974305,-0.626809,-0.719658,-0.698549,0.050971,-0.235888,-0.827312,0.509815,0.135775,-0.115681,-0.294331,-6.589216,-15.325788,19.881622,,,,,,,
1504198048.247169,-2.711628,0.980918,-0.630621,-0.671315,-0.629507,-0.118784,-0.231871,-0.831008,0.505629,0.188292,-0.179413,-0.225966,-6.214262,-15.398801,19.733093,,,,,,,
1504198048.257179,-2.715216,0.987355,-0.631833,-0.586750,-0.397786,-0.231123,-0.227838,-0.834572,0.501578,0.186334,-0.246697,-0.161978,-6.214262,-15.398801,19.733093,,,,,,,
1504198048.267189,-2.717502,0.993153,-0.631043,-0.487877,-0.078858,-0.291289,-0.224696,-0.837752,0.497679,0.101237,-0.234117,-0.075834,-6.063459,-15.847684,19.511841,,,,,,,
1504198048.277197,-2.718135,0.998174,-0.628847,-0.379010,0.174954,-0.320368,-0.222649,-0.840483,0.493980,0.021294,-0.194506,0.032204,-6.063459,-15.847684,19.511841,,,,,,,
1504198048.287207,-2.718220,1.002115,-0.625472,-0.259427,0.304020,-0.326816,-0.221245,-0.842612,0.490975,0.001580,-0.143869,0.107521,-5.762907,-16.071331,19.514282,,,,,,,
1504198048.297217,-2.718288,1.005287,-0.621914,-0.192649,0.270401,-0.292484,-0.220112,-0.844316,0.488550,0.020253,-0.110274,0.110067,-5.762907,-16.071331,19.514282,,,,,,,
1504198048.307227,-2.719745,1.007549,-0.618534,-0.108978,0.088512,-0.246120,-0.218618,-0.845526,0.487127,0.050954,-0.091166,0.048456,-5.612684,-16.295208,19.291321,,,,,,,
1504198048.317237,-2.723420,1.008925,-0.615064,-0.031893,-0.128468,-0.218919,-0.216354,-0.846259,0.486864,0.067794,-0.062875,-0.042894,-5.612684,-16.295208,19.291321,,,,,,,
1504198048.327246,-2.729026,1.009632,-0.611478,0.025382,-0.290933,-0.197185,-0.213381,-0.846636,0.487520,0.075564,-0.043653,-0.065264,-5.837675,-16.296215,19.290771,,,,,,,
1504198048.337256,-2.735642,1.009841,-0.607861,0.068394,-0.371227,-0.178823,-0.210081,-0.846747,0.488759,0.056318,-0.027657,-0.055058,-5.837675,-16.296215,19.290771,,,,,,,
1504198048.347266,-2.742540,1.009910,-0.604467,0.060572,-0.407406,-0.165964,-0.206682,-0.846784,0.490143,0.023119,-0.006091,-0.036987,-5.537870,-16.219875,19.290955,,,,,,,
1504198048.357276,-2.749414,1.010039,-0.600944,0.060865,-0.380752,-0.182021,-0.203266,-0.846853,0.491451,0.004291,0.000188,-0.029292,-5.537870,-16.219875,19.290955,,,,,,,
1504198048.367285,-2.755623,1.010305,-0.597531,0.035755,-0.313421,-0.173644,-0.200126,-0.846994,0.492494,-0.030557,0.005579,-0.021745,-4.938429,-15.992169,19.290741,,,,,,,
1504198048.377295,-2.760447,1.010897,-0.594775,-0.015895,-0.221376,-0.152548,-0.197561,-0.847309,0.492989,-0.060511,-0.008969,-0.003014,-4.938429,-15.992169,19.290741,,,,,,,
1504198048.387305,-2.763372,1.011968,-0.592770,-0.077840,-0.084487,-0.134751,-0.195783,-0.847877,0.492721,-0.080340,-0.019265,0.010148,-5.312635,-16.219158,19.441498,,,,,,,
1504198048.397316,-2.764422,1.013584,-0.591149,-0.132016,0.072612,-0.144729,-0.194761,-0.848733,0.491651,-0.090380,-0.017921,0.028521,-5.312635,-16.219158,19.441498,,,,,,,
1504198048.407325,-2.764299,1.015697,-0.589103,-0.164696,0.227440,-0.189889,-0.194160,-0.849848,0.489959,-0.072945,-0.010244,0.049805,-5.012419,-16.218105,19.592224,,,,,,,
1504198048.417335,-2.763054,1.018391,-0.586533,-0.210222,0.374918,-0.238261,-0.193923,-0.851265,0.487588,-0.036301,-0.010521,0.071449,-5.012419,-16.218105,19.592224,,,,,,,
1504198048.427314,-2.761167,1.021578,-0.583459,-0.241303,0.466856,-0.276904,-0.193835,-0.852933,0.484700,-0.024000,-0.019626,0.075130,-5.011961,-16.442959,19.518951,,,,,,,
1504198048.437324,-2.759443,1.025072,-0.579917,-0.261404,0.470248,-0.305764,-0.193557,-0.854752,0.481597,-0.021714,-0.033295,0.042878,-5.011961,-16.442959,19.518951,,,,,,,
1504198048.447334,-2.758240,1.028751,-0.576339,-0.272588,0.405340,-0.306737,-0.192959,-0.856655,0.478444,-0.003467,-0.035526,0.003444,-5.011732,-16.667507,19.295624,,,,,,,
1504198048.457344,-2.757763,1.032204,-0.573199,-0.253441,0.287927,-0.269137,-0.192079,-0.858432,0.475606,-0.005111,-0.025968,-0.027791,-5.011732,-16.667507,19.295624,,,,,,,
1504198048.467352,-2.758109,1.035427,-0.570405,-0.243715,0.181268,-0.250787,-0.190878,-0.860080,0.473105,-0.021586,-0.015729,-0.042563,-5.237898,-16.517467,18.768951,,,,,,,
1504198048.477362,-2.759014,1.038556,-0.567736,-0.238843,0.130068,-0.240014,-0.189444,-0.861672,0.470778,-0.020929,-0.013129,-0.033950,-5.237898,-16.517467,18.768951,,,,,,,
1504198048.487372,-2.759952,1.041705,-0.565293,-0.248626,0.114154,-0.229329,-0.187990,-0.863266,0.468435,-0.016477,-0.007950,-0.020223,-5.161512,-16.892742,19.071930,,,,,,,
1504198048.497382,-2.760628,1.045000,-0.563015,-0.268628,0.145226,-0.233688,-0.186615,-0.864924,0.465919,-0.022018,-0.009923,-0.011558,-5.161512,-16.892742,19.071930,,,,,,,
1504198048.507392,-2.760711,1.048484,-0.560236,-0.271798,0.262501,-0.265922,-0.185455,-0.866668,0.463134,-0.022064,-0.007478,-0.003234,-5.161695,-16.817745,19.071381,,,,,,,
1504198048.517401,-2.759505,1.051881,-0.557241,-0.255585,0.425399,-0.260844,-0.184915,-0.868358,0.460176,-0.019110,0.003276,0.023314,-5.161695,-16.817745,19.071381,,,,,,,
1504198048.527411,-2.756528,1.055069,-0.554554,-0.239743,0.553116,-0.237559,-0.185243,-0.869934,0.457055,-0.030989,-0.022216,0.030235,-5.461653,-16.968639,18.846741,,,,,,,
1504198048.537421,-2.753026,1.058037,-0.551944,-0.223572,0.580678,-0.226906,-0.185864,-0.871394,0.454012,-0.053745,-0.053838,0.012083,-5.461653,-16.968639,18.846741,,,,,,,
1504198048.547431,-2.749405,1.060699,-0.549697,-0.193114,0.540965,-0.193694,-0.186619,-0.872697,0.451191,-0.039333,-0.039931,-0.026646,-5.686811,-17.044201,18.621796,,,,,,,
1504198048.557441,-2.746397,1.062764,-0.547819,-0.142945,0.435016,-0.153926,-0.187281,-0.873703,0.448963,-0.014592,-0.021347,-0.029194,-5.686811,-17.044201,18.621796,,,,,,,
1504198048.567451,-2.744031,1.064311,-0.546517,-0.112094,0.319629,-0.106703,-0.187819,-0.874455,0.447272,-0.001878,-0.011974,-0.016318,-5.836348,-17.269726,18.548096,,,,,,,
1504198048.577461,-2.742006,1.065517,-0.545750,-0.095632,0.264047,-0.073487,-0.188315,-0.875039,0.445920,-0.003321,-0.005897,-0.021130,-5.836348,-17.269726,18.548096,,,,,,,
1504198048.587471,-2.739333,1.066520,-0.545469,-0.081566,0.306526,-0.044718,-0.189162,-0.875524,0.444607,-0.018434,-0.009440,-0.014492,-5.986052,-17.345547,18.623291,,,,,,,
1504198048.597479,-2.735642,1.067227,-0.545507,-0.061843,0.387322,-0.019209,-0.190557,-0.875866,0.443336,-0.037333,-0.015110,0.006874,-5.986052,-17.345547,18.623291,,,,,,,
1504198048.607489,-2.729964,1.067720,-0.546779,-0.070095,0.472555,0.060682,-0.192899,-0.876103,0.441852,-0.049624,-0.018001,0.014691,-5.910948,-17.345364,18.698456,,,,,,,
1504198048.617499,-2.722753,1.067653,-0.549876,-0.048537,0.431776,0.165397,-0.196104,-0.876071,0.440502,-0.048586,-0.025570,0.003116,-5.910948,-17.345364,18.698456,,,,,,,
1504198048.627509,-2.715233,1.066969,-0.554704,-0.024581,0.286555,0.263895,-0.199658,-0.875741,0.439561,-0.060230,-0.041586,-0.017716,-6.211058,-17.346569,18.622742,,,,,,,
1504198048.637518,-2.708041,1.065433,-0.561013,0.025900,0.126192,0.367804,-0.203379,-0.874999,0.439334,-0.060567,-0.036882,-0.038119,-6.211058,-17.346569,18.622742,,,,,,,
1504198048.647528,-2.701082,1.063032,-0.568684,0.070274,-0.005337,0.458842,-0.207327,-0.873833,0.439807,-0.065332,-0.038566,-0.037616,-6.286131,-17.496304,18.323639,,,,,,,
1504198048.657538,-2.685217,1.061084,-0.585206,0.097070,-0.087630,0.518815,-0.215028,-0.872885,0.437990,-0.063186,-0.042383,-0.032136,-6.286131,-17.496304,18.323639,,,,,,,
1504198048.667548,-2.678158,1.057651,-0.594339,0.113916,-0.087815,0.563675,-0.219453,-0.871205,0.439139,-0.058273,-0.035350,-0.031668,-6.436506,-17.346981,18.322144,,,,,,,
1504198048.677558,-2.670306,1.053843,-0.604140,0.123526,-0.054914,0.614869,-0.224399,-0.869329,0.440355,-0.057340,-0.040782,-0.013124,-6.436506,-17.346981,18.322144,,,,,,,
1504198048.687567,-2.661509,1.049724,-0.614555,0.128949,-0.016643,0.658575,-0.229916,-0.867286,0.441536,-0.062824,-0.048394,0.009804,-6.737852,-16.898022,18.168030,,,,,,,
1504198048.697577,-2.652439,1.045242,-0.625367,0.152046,-0.040315,0.696015,-0.235735,-0.865046,0.442860,-0.061568,-0.051015,0.037075,-6.737852,-16.898022,18.168030,,,,,,,
1504198048.707587,-2.643763,1.040295,-0.636486,0.175810,-0.111948,0.736744,-0.241609,-0.862553,0.444552,-0.052337,-0.060542,0.044675,-6.811720,-17.124111,18.544556,,,,,,,
1504198048.717597,-2.636354,1.035045,-0.647431,0.195106,-0.239969,0.727397,-0.247084,-0.859885,0.446707,-0.043626,-0.065957,0.033609,-6.811720,-17.124111,18.544556,,,,,,,
1504198048.727607,-2.636416,1.032115,-0.651555,0.155997,-0.374455,0.223752,-0.248275,-0.858386,0.448924,-0.034928,-0.060453,0.018895,-6.961836,-17.124630,18.469177,,,,,,,
1504198048.737617,-2.642905,1.030619,-0.649061,0.200863,-0.436292,-0.100551,-0.245970,-0.857617,0.451654,0.302382,-0.014361,-0.065362,-6.961836,-17.124630,18.469177,,,,,,,
1504198048.747627,-2.650072,1.029477,-0.644601,0.211765,-0.308452,-0.156263,-0.243189,-0.857030,0.454268,0.585917,-0.011699,-0.111845,-7.187330,-16.751247,18.765839,,,,,,,
1504198048.757637,-2.656892,1.028237,-0.639386,0.244683,-0.208533,-0.178797,-0.240580,-0.856390,0.456855,0.338053,-0.059793,-0.043342,-7.187330,-16.751247,18.765839,,,,,,,
1504198048.767645,-2.662631,1.026395,-0.634363,0.295280,-0.121622,-0.129762,-0.238681,-0.855437,0.459628,0.083225,-0.039918,0.042676,-6.811918,-16.824856,18.917297,,,,,,,
1504198048.777655,-2.667317,1.023931,-0.629954,0.330492,-0.089996,-0.079589,-0.237486,-0.854159,0.462615,0.001189,-0.001035,0.094316,-6.811918,-16.824856,18.917297,,,,,,,
1504198048.787665,-2.671291,1.021155,-0.626771,0.311564,-0.136813,0.003718,-0.236720,-0.852712,0.465667,0.003901,0.016500,0.109269,-7.037626,-16.451168,19.063934,,,,,,,
1504198048.797675,-2.672747,1.018641,-0.627525,0.174466,-0.211549,0.204284,-0.237009,-0.851396,0.467923,0.032145,0.064012,0.041462,-7.037626,-16.451168,19.063934,,,,,,,
1504198048.807685,-2.670054,1.015752,-0.632852,0.120268,-0.169792,0.442147,-0.239385,-0.849877,0.469472,-0.026911,0.086297,-0.055898,-6.662825,-16.374477,19.064301,,,,,,,
1504198048.817694,-2.663682,1.012230,-0.641111,0.114367,-0.026022,0.572106,-0.243747,-0.848016,0.470591,-0.123868,0.085824,-0.077159,-6.662825,-16.374477,19.064301,,,,,,,
1504198048.827704,-2.655782,1.008232,-0.649941,0.144708,0.053612,0.606175,-0.249038,-0.845890,0.471646,-0.116685,0.093891,0.026218,-6.737288,-16.450268,19.289673,,,,,,,
1504198048.837714,-2.648004,1.004022,-0.658697,0.149777,0.023728,0.611574,-0.254384,-0.843637,0.472826,-0.024120,0.108408,0.099165,-6.737288,-16.450268,19.289673,,,,,,,
1504198048.847724,-2.641302,0.999922,-0.667249,0.137340,-0.075251,0.593581,-0.259204,-0.841429,0.474142,0.030536,0.119779,0.073496,-7.114134,-16.075756,18.685944,,,,,,,
1504198048.857715,-2.636176,0.996003,-0.674917,0.148811,-0.145613,0.533951,-0.263226,-0.839304,0.475689,0.054348,0.116786,0.013157,-7.114134,-16.075756,18.685944,,,,,,,
1504198048.867725,-2.632620,0.992618,-0.681124,0.122459,-0.166606,0.435741,-0.266299,-0.837459,0.477228,0.068194,0.105770,-0.005869,-7.337858,-16.227962,19.286499,,,,,,,
1504198048.877735,-2.629300,0.990117,-0.686651,0.049561,-0.113729,0.375747,-0.268907,-0.836090,0.478165,0.084520,0.075592,0.000778,-7.337858,-16.227962,19.286499,,,,,,,
1504198048.887745,-2.625822,0.988163,-0.692077,0.016716,-0.101709,0.348984,-0.271374,-0.835017,0.478648,0.075314,0.030207,-0.035258,-7.113417,-16.001949,19.285370,,,,,,,
1504198048.897754,-2.622178,0.986630,-0.697520,-0.024708,-0.089627,0.330745,-0.273751,-0.834172,0.478766,0.006921,-0.023753,-0.087500,-7.113417,-16.001949,19.285370,,,,,,,
1504198048.907764,-2.619152,0.985337,-0.702543,-0.024808,-0.124754,0.294515,-0.275736,-0.833458,0.478870,-0.028264,-0.043769,-0.075504,-7.114027,-15.851651,19.134247,,,,,,,
1504198048.917774,-2.617053,0.984263,-0.706785,-0.022611,-0.148163,0.244392,-0.277189,-0.832864,0.479065,-0.027681,-0.033820,-0.025833,-7.114027,-15.851651,19.134247,,,,,,,
1504198048.927784,-2.615409,0.983456,-0.710353,-0.031799,-0.123533,0.200569,-0.278314,-0.832417,0.479189,-0.021186,-0.019420,0.004392,-7.039030,-15.851315,19.134430,,,,,,,
1504198048.937793,-2.613610,0.982918,-0.713608,-0.050502,-0.075402,0.176969,-0.279401,-0.832119,0.479075,-0.023577,-0.020649,0.012640,-7.039030,-15.851315,19.134430,,,,,,,
1504198048.947803,-2.611251,0.982555,-0.716844,-0.058594,-0.022052,0.173659,-0.280684,-0.831918,0.478675,-0.047487,-0.018256,0.005456,-7.188826,-15.926984,19.134644,,,,,,,
1504198048.957814,-2.608740,0.982249,-0.719838,-0.057234,0.001402,0.152272,-0.282014,-0.831748,0.478188,-0.073684,-0.016946,0.001487,-7.188826,-15.926984,19.134644,,,,,,,
1504198048.967824,-2.606900,0.981997,-0.722100,-0.037888,-0.008302,0.108559,-0.283000,-0.831608,0.477848,-0.080479,-0.021084,0.004162,-7.339628,-15.702359,18.982574,,,,,,,
1504198048.977834,-2.606103,0.981761,-0.723441,-0.013374,-0.039360,0.063825,-0.283481,-0.831477,0.477792,-0.046887,-0.022436,-0.002679,-7.339628,-15.702359,18.982574,,,,,,,
1504198048.987843,-2.606354,0.981783,-0.723920,-0.012325,-0.075542,0.009453,-0.283351,-0.831489,0.477847,-0.018437,-0.024987,-0.012622,-7.489088,-15.778485,19.207733,,,,,,,
1504198048.997853,-2.607320,0.981839,-0.723809,0.000482,-0.086285,-0.008652,-0.282866,-0.831520,0.478080,0.011641,-0.011757,-0.021263,-7.489088,-15.778485,19.207733,,,,,,,
1504198049.007863,-2.608219,0.981823,-0.723768,0.002552,-0.086315,0.004161,-0.282443,-0.831511,0.478346,0.037372,-0.001146,-0.022230,-7.264891,-15.552167,19.056610,,,,,,,
1504198049.017873,-2.609055,0.981756,-0.723884,0.001394,-0.093771,0.010577,-0.282071,-0.831474,0.478630,0.016233,-0.007363,-0.002586,-7.264891,-15.552167,19.056610,,,,,,,
1504198049.027881,-2.609729,0.981579,-0.724286,0.004376,-0.104480,0.037286,-0.281823,-0.831376,0.478947,0.007165,0.008942,0.001812,-7.414442,-15.553449,19.356262,,,,,,,
1504198049.037861,-2.610077,0.981286,-0.725280,-0.004491,-0.124688,0.071463,-0.281780,-0.831213,0.479254,0.020107,0.026007,-0.002814,-7.414442,-15.553449,19.356262,,,,,,,
1504198049.047870,-2.610354,0.980936,-0.726826,-0.015645,-0.167250,0.100338,-0.281795,-0.831019,0.479583,0.020808,0.024881,-0.008132,-7.039366,-15.626615,19.282745,,,,,,,
1504198049.057880,-2.610275,0.980614,-0.729369,-0.056813,-0.212787,0.152650,-0.281968,-0.830839,0.479792,0.011445,0.029493,-0.021464,-7.039366,-15.626615,19.282745,,,,,,,
1504198049.067890,-2.609632,0.980388,-0.733172,-0.098026,-0.262587,0.207104,-0.282372,-0.830713,0.479773,0.002449,0.032068,-0.036962,-7.038801,-15.851605,19.284424,,,,,,,
1504198049.077900,-2.608193,0.980300,-0.738046,-0.139777,-0.256954,0.244381,-0.283099,-0.830665,0.479428,-0.001783,0.036002,-0.045285,-7.038801,-15.851605,19.284424,,,,,,,
1504198049.087909,-2.605880,0.980285,-0.743489,-0.153372,-0.207848,0.267753,-0.284214,-0.830656,0.478783,-0.000988,0.036268,-0.028298,-6.890043,-15.400784,19.206421,,,,,,,
1504198049.097919,-2.603314,0.979955,-0.749028,-0.118243,-0.209218,0.281693,-0.285582,-0.830472,0.478287,0.001020,0.023466,0.001892,-6.890043,-15.400784,19.206421,,,,,,,
1504198049.107929,-2.600217,0.979821,-0.755262,-0.189922,-0.212924,0.314665,-0.287119,-0.830398,0.477496,-0.008581,0.007537,0.020917,-7.038725,-15.926465,19.209991,,,,,,,
1504198049.117939,-2.595559,0.977350,-0.763608,-0.198163,-0.299166,0.331897,-0.290405,-0.829018,0.477906,-0.027848,0.003167,0.025405,-7.038725,-15.926465,19.209991,,,,,,,
1504198049.127949,-2.593128,0.977394,-0.770255,-0.201285,-0.306570,0.304152,-0.291546,-0.829043,0.477167,-0.032977,0.026889,-0.022806,-7.039473,-15.626462,19.207733,,,,,,,
1504198049.137959,-2.591458,0.977805,-0.776059,-0.204254,-0.318200,0.239056,-0.292165,-0.829273,0.476389,-0.026973,0.024021,0.003638,-7.039473,-15.626462,19.207733,,,,,,,
1504198049.147969,-2.590628,0.978456,-0.780969,-0.193415,-0.328892,0.187858,-0.292278,-0.829636,0.475686,0.014446,0.022828,0.021292,-7.039320,-15.776166,19.058868,,,,,,,
1504198049.157979,-2.594319,0.979482,-0.782042,-0.186997,-0.343855,0.160134,-0.290077,-0.830208,0.476035,0.037101,0.026360,-0.002295,-7.039320,-15.776166,19.058868,,,,,,,
1504198049.167989,-2.594468,0.980344,-0.786276,-0.198950,-0.373589,0.155896,-0.289633,-0.830689,0.475466,0.014258,0.008164,0.005292,-7.113462,-16.076641,19.135956,,,,,,,
1504198049.177997,-2.594917,0.981351,-0.790426,-0.209684,-0.391599,0.139899,-0.288984,-0.831249,0.474881,-0.044481,-0.012913,0.002505,-7.113462,-16.076641,19.135956,,,,,,,
1504198049.188007,-2.595643,0.982691,-0.794302,-0.229790,-0.393527,0.103575,-0.288061,-0.831993,0.474139,-0.086252,-0.042564,0.006742,-6.663984,-15.774930,19.284790,,,,,,,
1504198049.198017,-2.592721,0.984275,-0.801270,-0.278889,-0.428211,0.052326,-0.288758,-0.832871,0.472171,-0.077652,-0.069244,0.019346,-6.663984,-15.774930,19.284790,,,,,,,
1504198049.208027,-2.594958,0.986767,-0.804306,-0.305843,-0.497197,-0.002036,-0.286621,-0.834248,0.471041,-0.053360,-0.066326,0.000105,-6.513731,-15.924100,19.211273,,,,,,,
1504198049.218036,-2.598557,0.989866,-0.806884,-0.350163,-0.599079,-0.049967,-0.283586,-0.835952,0.469853,-0.031614,-0.033203,-0.022237,-6.513731,-15.924100,19.211273,,,,,,,
1504198049.228046,-2.603423,0.993472,-0.809104,-0.377382,-0.692586,-0.090410,-0.279750,-0.837926,0.468637,-0.012349,-0.017573,-0.026345,-6.363462,-16.073284,19.137787,,,,,,,
1504198049.238056,-2.608469,0.997323,-0.811195,-0.373988,-0.690444,-0.125631,-0.275739,-0.840021,0.467260,-0.015673,0.013728,-0.018026,-6.363462,-16.073284,19.137787,,,,,,,
1504198049.248066,-2.613913,1.001308,-0.812430,-0.379772,-0.626438,-0.147102,-0.271504,-0.842177,0.465858,-0.029003,0.024443,0.012597,-6.212782,-16.297756,19.214844,,,,,,,
1504198049.258075,-2.618711,1.005286,-0.813240,-0.361751,-0.518942,-0.165407,-0.267590,-0.844315,0.464249,-0.047183,0.025315,0.031357,-6.212782,-16.297756,19.214844,,,,,,,
1504198049.268085,-2.622634,1.009190,-0.813880,-0.352437,-0.420984,-0.164496,-0.264131,-0.846400,0.462430,-0.070266,0.030605,0.027393,-5.537535,-16.444576,19.142639,,,,,,,
1504198049.278095,-2.620775,1.010069,-0.818916,-0.336258,-0.389128,-0.147420,-0.264619,-0.846868,0.461292,-0.066313,0.023443,0.016521,-5.537535,-16.444576,19.142639,,,,,,,
1504198049.288105,-2.624104,1.013685,-0.820493,-0.364074,-0.506138,-0.088578,-0.261565,-0.848786,0.459506,-0.047929,0.032365,-0.008120,-5.987593,-16.371746,19.215942,,,,,,,
1504198049.298115,-2.628406,1.017313,-0.823630,-0.411307,-0.763700,-0.015623,-0.258073,-0.850699,0.457941,-0.026916,0.032843,-0.064066,-5.987593,-16.371746,19.215942,,,,,,,
1504198049.308125,-2.634076,1.021213,-0.828477,-0.486406,-1.042335,0.048783,-0.253858,-0.852742,0.456494,-0.007128,0.038686,-0.118314,-5.462217,-16.519390,19.218384,,,,,,,
1504198049.318135,-2.639669,1.025736,-0.835465,-0.592328,-1.171535,0.115006,-0.249442,-0.855096,0.454521,0.010444,0.043496,-0.134819,-5.462217,-16.519390,19.218384,,,,,,,
1504198049.328145,-2.644361,1.028604,-0.837298,-0.262968,-0.519788,-0.059559,-0.246136,-0.856579,0.453529,0.004284,0.080716,-0.104927,-4.786329,-16.966061,19.073425,,,,,,,
1504198049.338155,-2.646032,1.032101,-0.838964,-0.367046,-0.233282,-0.125356,-0.243952,-0.858379,0.451302,0.135905,0.011699,0.262764,-4.786329,-16.966061,19.073425,,,,,,,
1504198049.348163,-2.648403,1.036404,-0.837384,-0.327438,-0.070370,-0.318775,-0.241131,-0.860578,0.448622,0.148327,-0.149951,0.330492,-4.711103,-16.966015,19.223602,,,,,,,
1504198049.358173,-2.651808,1.041057,-0.833403,-0.315560,0.020209,-0.416047,-0.237715,-0.862939,0.445901,-0.081239,0.017358,0.028571,-4.711103,-16.966015,19.223602,,,,,,,
1504198049.368183,-2.655947,1.045706,-0.828640,-0.287095,-0.031160,-0.429784,-0.233992,-0.865279,0.443329,-0.131669,-0.045259,0.029968,-4.410353,-17.264660,19.226593,,,,,,,
1504198049.378193,-2.662190,1.049583,-0.823321,-0.193680,-0.212036,-0.410090,-0.229671,-0.867216,0.441801,-0.111638,-0.117846,-0.012601,-4.410353,-17.264660,19.226593,,,,,,,
1504198049.388202,-2.671440,1.052760,-0.816951,-0.121701,-0.434245,-0.437326,-0.224325,-0.868793,0.441448,-0.061457,-0.056622,-0.090725,-4.335493,-17.338879,19.002350,,,,,,,
1504198049.398212,-2.684697,1.055815,-0.808717,-0.085817,-0.667822,-0.519041,-0.217282,-0.870302,0.441999,0.008053,-0.033766,-0.128065,-4.335493,-17.338879,19.002350,,,,,,,
1504198049.408222,-2.700890,1.058574,-0.799754,-0.047143,-0.892996,-0.504701,-0.209071,-0.871657,0.443286,0.009715,0.004287,-0.138645,-3.809752,-17.412273,19.379211,,,,,,,
1504198049.418232,-2.718596,1.061398,-0.791911,-0.125192,-1.148151,-0.453151,-0.200179,-0.873038,0.444672,-0.011995,0.025290,-0.129410,-3.809752,-17.412273,19.379211,,,,,,,
1504198049.428241,-2.736080,1.065045,-0.785819,-0.245434,-1.212211,-0.406281,-0.191116,-0.874811,0.445175,0.020844,0.023202,-0.119568,-3.584074,-17.860668,19.083130,,,,,,,
1504198049.438251,-2.749754,1.069010,-0.781845,-0.294941,-0.928471,-0.293722,-0.183686,-0.876725,0.444537,0.042725,0.071000,-0.061313,-3.584074,-17.860668,19.083130,,,,,,,
1504198049.448261,-2.756820,1.072122,-0.781030,-0.267183,-0.541018,-0.104360,-0.179515,-0.878217,0.443293,0.019236,0.053571,0.103689,-2.908522,-18.082623,19.086487,,,,,,,
1504198049.458272,-2.758206,1.074562,-0.783213,-0.268884,-0.268352,0.031784,-0.178098,-0.879382,0.441553,0.008680,0.000750,0.212744,-2.908522,-18.082623,19.086487,,,,,,,
1504198049.468282,-2.756280,1.076738,-0.786946,-0.267831,-0.096865,0.095527,-0.178229,-0.880416,0.439434,0.029745,-0.084458,0.151661,-2.458036,-18.230755,19.163727,,,,,,,
1504198049.478291,-2.751976,1.078772,-0.791570,-0.275317,0.057670,0.132601,-0.179438,-0.881378,0.437006,0.016459,-0.124649,0.099356,-2.458036,-18.230755,19.163727,,,,,,,
1504198049.488301,-2.746173,1.080771,-0.796946,-0.281431,0.114162,0.165580,-0.181292,-0.882321,0.434330,-0.011335,-0.157352,0.095653,-2.533247,-18.230785,19.013550,,,,,,,
1504198049.498311,-2.739097,1.082645,-0.803540,-0.297640,0.129147,0.230637,-0.183712,-0.883202,0.431515,-0.004322,-0.120186,0.060062,-2.533247,-18.230785,19.013550,,,,,,,
1504198049.508321,-2.730100,1.084503,-0.812208,-0.345051,0.129440,0.324486,-0.186930,-0.884071,0.428340,0.028514,-0.081490,0.012868,-2.983290,-18.307522,18.862976,,,,,,,
1504198049.518329,-2.719285,1.086266,-0.823373,-0.379099,0.074198,0.431265,-0.190913,-0.884894,0.424870,0.047526,-0.095636,0.020534,-2.983290,-18.307522,18.862976,,,,,,,
1504198049.528339,-2.706761,1.087680,-0.837452,-0.406145,-0.017368,0.573344,-0.195692,-0.885552,0.421311,0.049680,-0.102638,0.015502,-2.982878,-18.382824,19.013580,,,,,,,
1504198049.538349,-2.692434,1.088389,-0.854589,-0.401203,-0.102819,0.729344,-0.201435,-0.885881,0.417899,0.037327,-0.127501,-0.004248,-2.982878,-18.382824,19.013580,,,,,,,
1504198049.548359,-2.674983,1.087772,-0.875817,-0.371750,-0.140605,0.967492,-0.208942,-0.885594,0.414808,0.016834,-0.147670,-0.005186,-3.057646,-18.607708,18.790070,,,,,,,
1504198049.558368,-2.655873,1.086365,-0.899259,-0.382126,-0.180042,1.059340,-0.217412,-0.884940,0.411841,-0.011958,-0.130243,0.005319,-3.057646,-18.607708,18.790070,,,,,,,
1504198049.568378,-2.635969,1.084664,-0.924429,-0.413898,-0.242719,1.125575,-0.226295,-0.884146,0.408749,0.020393,-0.052362,0.013675,-3.657911,-18.684811,18.489136,,,,,,,
1504198049.578388,-2.614841,1.082359,-0.950516,-0.395498,-0.164093,1.199119,-0.235903,-0.883067,0.405638,0.095935,0.003001,-0.034956,-3.657911,-18.684811,18.489136,,,,,,,
1504198049.588398,-2.591591,1.079182,-0.977582,-0.379896,-0.036424,1.270437,-0.246735,-0.881572,0.402434,0.048127,-0.003896,-0.031325,-3.958128,-18.685848,18.338379,,,,,,,
1504198049.598408,-2.567101,1.075904,-1.004594,-0.414857,0.117329,1.253026,-0.258085,-0.880020,0.398694,0.005353,-0.015900,0.014910,-4.332975,-18.837246,18.188568,,,,,,,
1504198049.608418,-2.540579,1.072684,-1.031255,-0.437183,0.370100,1.214116,-0.270168,-0.878486,0.394046,-0.050175,0.035316,0.027479,-4.332975,-18.837246,18.188568,,,,,,,
1504198049.618428,-2.513823,1.069863,-1.055680,-0.446567,0.579177,1.077103,-0.282067,-0.877135,0.388681,-0.082419,0.095198,0.068106,-5.158079,-18.840801,18.111542,,,,,,,
1504198049.628438,-2.487452,1.068265,-1.077511,-0.518722,0.777105,0.886631,-0.293071,-0.876366,0.382220,0.011546,0.152199,0.087018,-5.158079,-18.840801,18.111542,,,,,,,
1504198049.638448,-2.461754,1.068266,-1.096579,-0.581522,0.924905,0.665310,-0.302794,-0.876367,0.374562,0.104216,0.206033,0.080668,-5.607771,-19.142223,17.812683,,,,,,,
1504198049.648457,-2.438281,1.069730,-1.113222,-0.629151,0.860483,0.484950,-0.310672,-0.877071,0.366374,0.148777,0.278697,0.137609,-5.607771,-19.142223,17.812683,,,,,,,
1504198049.658437,-2.417676,1.071569,-1.127233,-0.543082,0.856733,0.335669,-0.317086,-0.877953,0.358686,0.211648,0.322365,0.162890,-6.133558,-18.919292,17.659698,,,,,,,
1504198049.668445,-2.399420,1.073375,-1.136057,-0.376842,1.121947,0.159368,-0.322509,-0.878816,0.351668,0.158660,0.288759,0.136766,-6.133558,-18.919292,17.659698,,,,,,,
1504198049.678455,-2.381580,1.074424,-1.140407,-0.162105,1.491118,0.052349,-0.328095,-0.879316,0.345191,0.131455,0.282621,0.254388,-6.508375,-19.220226,17.286041,,,,,,,
1504198049.688465,-2.363884,1.074923,-1.141101,-0.037880,1.765104,-0.029041,-0.333844,-0.879554,0.339018,0.115064,0.236136,0.281374,-6.508375,-19.220226,17.286041,,,,,,,
1504198049.698475,-2.345282,1.075828,-1.141827,-0.125199,1.777559,-0.043091,-0.339523,-0.879984,0.332193,0.047150,0.202387,0.194067,-7.558332,-19.374493,17.059570,,,,,,,
1504198049.708484,-2.326869,1.077473,-1.144575,-0.236112,1.530166,-0.021499,-0.344528,-0.880764,0.324892,0.016251,0.130169,0.035597,-7.558332,-19.374493,17.059570,,,,,,,
1504198049.718494,-2.309865,1.079883,-1.150938,-0.402868,0.999734,0.047461,-0.348433,-0.881903,0.317556,0.045760,0.015631,-0.225393,-8.083540,-19.376568,16.908264,,,,,,,
1504198049.728504,-2.299973,1.081878,-1.156160,-0.282729,0.381813,-0.001409,-0.350245,-0.882841,0.312921,0.096094,-0.217134,-0.372461,-8.083540,-19.376568,16.908264,,,,,,,
1504198049.738514,-2.296308,1.083417,-1.159292,-0.189598,0.013425,-0.011272,-0.350372,-0.883563,0.310734,0.082199,-0.374951,-0.372745,-8.159117,-19.376156,16.533051,,,,,,,
1504198049.748523,-2.295350,1.084439,-1.161350,-0.122213,-0.102210,-0.016288,-0.349994,-0.884041,0.309800,-0.086225,-0.289680,-0.168671,-8.159117,-19.376156,16.533051,,,,,,,
1504198049.758533,-2.295711,1.085084,-1.162284,-0.061584,-0.126151,-0.017208,-0.349455,-0.884343,0.309547,-0.123400,-0.274974,-0.033134,-8.158735,-19.526150,16.534180,,,,,,,
1504198049.768543,-2.297206,1.085166,-1.162467,0.008253,-0.182165,0.009697,-0.348937,-0.884381,0.310021,-0.061646,-0.184406,-0.045693,-8.158735,-19.526150,16.534180,,,,,,,
1504198049.778553,-2.299962,1.084057,-1.162167,0.107378,-0.271521,0.100755,-0.348813,-0.883863,0.311635,-0.027148,-0.121539,-0.039663,-8.159117,-19.376156,16.533051,,,,,,,
1504198049.788563,-2.302994,1.081579,-1.162366,0.170321,-0.331836,0.219452,-0.349494,-0.882701,0.314154,0.033820,-0.078587,-0.032965,-8.159117,-19.376156,16.533051,,,,,,,
1504198049.798573,-2.305104,1.078249,-1.163753,0.170972,-0.326609,0.311241,-0.351011,-0.881131,0.316859,0.078001,-0.046390,-0.038539,-8.233885,-19.376781,16.682861,,,,,,,
1504198049.808583,-2.305300,1.074682,-1.166647,0.124348,-0.250627,0.368666,-0.353279,-0.879439,0.319032,0.079032,0.003569,-0.014711,-8.233885,-19.376781,16.682861,,,,,,,
1504198049.818593,-2.302929,1.071118,-1.171050,0.064376,-0.115916,0.415290,-0.356363,-0.877737,0.320287,0.070795,0.040212,0.030390,-8.159529,-19.076595,16.755829,,,,,,,
1504198049.828603,-2.297801,1.067503,-1.177306,0.007157,-0.018555,0.491872,-0.360369,-0.875999,0.320562,0.071581,0.045143,0.047740,-8.159529,-19.076595,16.755829,,,,,,,
1504198049.838611,-2.290389,1.063190,-1.185507,-0.020755,0.044405,0.627273,-0.365573,-0.873911,0.320369,0.076068,0.030466,0.050084,-8.233961,-19.301937,16.757324,,,,,,,
1504198049.848621,-2.279429,1.057875,-1.196645,-0.076278,0.142724,0.793518,-0.372584,-0.871315,0.319361,0.091624,-0.001808,0.034932,-8.233961,-19.301937,16.757324,,,,,,,
1504198049.858596,-2.266420,1.052195,-1.210375,-0.183938,0.081707,0.889505,-0.380500,-0.868513,0.317655,0.107551,-0.020296,0.027697,-8.684858,-19.078503,16.529510,,,,,,,
1504198049.868606,-2.253218,1.047074,-1.225454,-0.269870,-0.012387,0.854298,-0.388107,-0.865963,0.315405,0.090622,-0.039737,0.029047,-8.684858,-19.078503,16.529510,,,,,,,
1504198049.878615,-2.239782,1.042731,-1.241483,-0.384152,-0.043387,0.828537,-0.395256,-0.863783,0.312491,0.011681,-0.098863,0.027475,-9.359785,-19.156399,16.453400,,,,,,,
1504198049.888625,-2.223695,1.039368,-1.259695,-0.560306,0.074218,0.824822,-0.402537,-0.862084,0.307856,-0.048391,-0.101569,0.051001,-9.359785,-19.156399,16.453400,,,,,,,
1504198049.898635,-2.204380,1.036838,-1.279994,-0.703051,0.230979,0.816827,-0.410164,-0.860799,0.301314,-0.041878,-0.075892,0.099260,-9.586515,-18.557110,16.298340,,,,,,,
1504198049.908645,-2.181935,1.034824,-1.302143,-0.830008,0.367353,0.819568,-0.418242,-0.859772,0.293027,-0.024812,-0.007934,0.145495,-9.586515,-18.557110,16.298340,,,,,,,
1504198049.918653,-2.157232,1.033426,-1.325850,-0.952981,0.448316,0.790393,-0.426353,-0.859058,0.283271,-0.001381,0.061405,0.164834,-9.885679,-19.157558,15.852112,,,,,,,
1504198049.928663,-2.131509,1.033046,-1.350570,-1.069855,0.442996,0.683459,-0.433774,-0.858863,0.272386,-0.010760,0.045936,0.155196,-9.885679,-19.157558,15.852112,,,,,,,
1504198049.938673,-2.107039,1.034395,-1.374865,-1.155082,0.335213,0.484965,-0.439313,-0.859553,0.261098,-0.064914,0.001384,0.106700,-10.411283,-19.233868,15.326385,,,,,,,
1504198049.948684,-2.083718,1.037527,-1.399272,-1.263047,0.205208,0.317425,-0.442934,-0.861150,0.249461,-0.100737,0.009435,0.054158,-10.411283,-19.233868,15.326385,,,,,,,
1504198049.958694,-2.060254,1.041808,-1.425077,-1.384073,0.097597,0.237350,-0.445407,-0.863318,0.237265,-0.105664,-0.012216,0.049890,-10.861204,-19.535000,14.877502,,,,,,,
1504198049.968703,-2.035324,1.046719,-1.453029,-1.498245,0.073002,0.199836,-0.447387,-0.865786,0.224186,-0.072922,0.028445,0.061108,-10.861204,-19.535000,14.877502,,,,,,,
1504198049.978713,-2.009150,1.051984,-1.482403,-1.549182,0.075606,0.148508,-0.448967,-0.868409,0.210463,-0.009483,0.039139,0.102007,-11.011152,-19.909481,14.279938,,,,,,,
1504198049.988723,-1.982779,1.057282,-1.511519,-1.511252,0.115842,0.095133,-0.450138,-0.871024,0.196706,0.013768,0.018179,0.113398,-11.011152,-19.909481,14.279938,,,,,,,
1504198049.998733,-1.957375,1.062455,-1.539441,-1.440698,0.098269,0.039781,-0.450811,-0.873553,0.183507,0.005834,0.041445,0.053660,-11.010374,-20.583279,13.684998,,,,,,,
1504198050.008742,-1.933456,1.066960,-1.566544,-1.366006,-0.011077,0.077462,-0.451386,-0.875737,0.171275,0.026353,0.081258,-0.018016,-11.010374,-20.583279,13.684998,,,,,,,
1504198050.018752,-1.914914,1.069559,-1.592517,-1.241560,-0.627119,0.237807,-0.452340,-0.876989,0.162108,0.039911,0.062749,-0.063201,-11.010481,-20.807384,13.236664,,,,,,,
1504198050.028762,-1.900070,1.070583,-1.620218,-1.300501,-0.972034,0.379210,-0.453847,-0.877480,0.155085,0.042790,0.033654,-0.153605,-11.010481,-20.807384,13.236664,,,,,,,
1504198050.038772,-1.884233,1.070313,-1.648396,-1.249862,-0.853199,0.470885,-0.456471,-0.877351,0.147952,0.097294,-0.052108,-0.289172,-11.085218,-21.181835,12.789307,,,,,,,
1504198050.048781,-1.869711,1.068589,-1.674314,-1.090061,-0.825840,0.562910,-0.460017,-0.876522,0.141753,0.121470,-0.033390,-0.119475,-11.085218,-21.181835,12.789307,,,,,,,
1504198050.058791,-1.858275,1.065797,-1.697256,-0.947713,-0.888842,0.586751,-0.463953,-0.875175,0.137176,0.096979,0.016181,-0.024963,-10.860060,-21.330517,12.640991,,,,,,,
1504198050.068801,-1.851116,1.062581,-1.715979,-0.708702,-0.907825,0.553042,-0.467625,-0.873614,0.134629,0.080555,0.032596,-0.073106,-10.860060,-21.330517,12.640991,,,,,,,
1504198050.078811,-1.847736,1.058936,-1.728972,-0.448053,-0.755425,0.520135,-0.471137,-0.871835,0.133918,0.031363,0.073694,-0.118994,-11.160398,-21.331417,12.415253,,,,,,,
1504198050.088820,-1.847297,1.054485,-1.736934,-0.194148,-0.610488,0.543803,-0.474925,-0.869646,0.134769,-0.018774,0.053224,-0.045947,-11.160398,-21.331417,12.415253,,,,,,,
1504198050.098830,-1.849262,1.048932,-1.740648,0.025194,-0.498333,0.599490,-0.479294,-0.866891,0.137027,-0.021499,-0.008078,-0.041248,-11.310286,-21.332241,12.489838,,,,,,,
1504198050.108840,-1.853481,1.042173,-1.741443,0.180508,-0.505025,0.680893,-0.484328,-0.863502,0.140679,-0.014085,-0.066765,-0.058312,-11.310286,-21.332241,12.489838,,,,,,,
1504198050.118850,-1.861165,1.034424,-1.739542,0.337067,-0.639571,0.735839,-0.489629,-0.859568,0.146308,-0.011073,-0.089681,-0.084983,-11.385588,-21.033184,12.787445,,,,,,,
1504198050.128860,-1.872919,1.026053,-1.735621,0.456337,-0.934660,0.736566,-0.494728,-0.855260,0.154189,-0.024834,-0.066706,-0.133803,-11.385588,-21.033184,12.787445,,,,,,,
1504198050.138869,-1.890183,1.017736,-1.729532,0.636669,-1.240837,0.670173,-0.498729,-0.850921,0.164934,-0.041585,-0.016099,-0.168505,-11.610777,-20.734936,13.159637,,,,,,,
1504198050.148879,-1.914371,1.009155,-1.715335,1.100917,-1.180576,0.526771,-0.501451,-0.846382,0.179401,-0.096984,-0.000084,-0.270542,-11.610777,-20.734936,13.159637,,,,,,,
1504198050.158889,-1.942047,1.000397,-1.694437,1.420268,-0.953965,0.394567,-0.503183,-0.841685,0.195890,-0.142310,-0.017308,-0.124418,-11.310026,-20.585079,13.909271,,,,,,,
1504198050.168899,-1.970757,0.991690,-1.670491,1.559293,-0.839925,0.298541,-0.504083,-0.836952,0.213100,-0.123114,-0.098106,-0.132091,-11.310026,-20.585079,13.909271,,,,,,,
1504198050.178908,-2.001391,0.982721,-1.645267,1.646567,-1.031334,0.248862,-0.504121,-0.832010,0.231563,-0.107971,-0.171347,-0.278301,-10.785933,-19.908764,14.430481,,,,,,,
1504198050.188918,-2.036166,0.973607,-1.620787,1.602450,-1.625553,0.227418,-0.502521,-0.826920,0.252343,-0.074261,-0.172012,-0.251824,-10.785933,-19.908764,14.430481,,,,,,,
1504198050.198928,-2.075705,0.965087,-1.600649,1.325190,-2.548199,0.217890,-0.498302,-0.822099,0.275408,0.048182,-0.177825,-0.315416,-10.485899,-19.384212,15.327332,,,,,,,
1504198050.208938,-2.122756,0.957726,-1.584880,1.092428,-3.674690,0.158631,-0.489936,-0.817885,0.301705,0.070198,-0.160447,-0.437844,-10.485899,-19.384212,15.327332,,,,,,,
1504198050.218947,-2.176857,0.952695,-1.572342,0.888164,-4.645717,-0.018269,-0.476281,-0.814980,0.330097,0.020455,-0.111640,-0.499576,-9.210203,-19.080425,16.303223,,,,,,,
1504198050.228957,-2.236650,0.949789,-1.561606,0.764957,-5.331865,-0.161377,-0.457565,-0.813293,0.359430,-0.042664,-0.034364,-0.418176,-9.210203,-19.080425,16.303223,,,,,,,
1504198050.238967,-2.300125,0.947578,-1.553253,0.451763,-5.785395,-0.130167,-0.435184,-0.812004,0.388927,-0.072781,-0.097267,-0.326504,-6.883299,-19.072506,17.583984,,,,,,,
1504198050.248976,-2.358420,0.947763,-1.552448,-0.137977,-5.663467,0.009493,-0.411678,-0.812112,0.413515,-0.069614,-0.258292,-0.308428,-6.883299,-19.072506,17.583984,,,,,,,
1504198050.258986,-2.395514,0.951375,-1.565756,-1.017883,-4.420572,0.439142,-0.394066,-0.814215,0.426341,-0.025322,-0.285639,-0.344645,-4.783461,-18.689114,18.111328,,,,,,,
1504198050.268965,-2.403023,0.955631,-1.594719,-1.542688,-2.635290,1.134233,-0.388517,-0.816678,0.426722,-0.098970,-0.156818,-0.219370,-4.783461,-18.689114,18.111328,,,,,,,
1504198050.278975,-2.382326,0.957481,-1.634881,-1.756562,-0.754378,1.678123,-0.396224,-0.817744,0.417493,-0.246369,-0.026921,-0.056501,-3.508512,-18.758083,17.965057,,,,,,,
1504198050.288985,-2.340356,0.958348,-1.681171,-1.988603,0.755200,1.862899,-0.412883,-0.818243,0.400007,-0.370427,0.053839,0.165941,-3.508512,-18.758083,17.965057,,,,,,,
1504198050.298995,-2.285287,0.958007,-1.730314,-2.050083,1.667758,1.960452,-0.434485,-0.818047,0.376858,-0.350366,0.105415,0.305026,-4.333357,-19.359997,17.067535,,,,,,,
1504198050.309005,-2.224659,0.954888,-1.779839,-2.008596,2.122311,2.071800,-0.458544,-0.816249,0.351390,-0.246962,0.081920,0.338002,-4.333357,-19.359997,17.067535,,,,,,,
1504198050.319015,-2.161345,0.949576,-1.829297,-2.019974,2.318445,2.100254,-0.483453,-0.813169,0.324083,-0.122367,0.034208,0.348585,-5.982695,-20.340038,15.870728,,,,,,,
1504198050.329024,-2.101783,0.943067,-1.876413,-1.968175,2.043230,1.969538,-0.506441,-0.809363,0.297404,0.019304,-0.029413,0.395955,-5.982695,-20.340038,15.870728,,,,,,,
1504198050.339034,-2.050323,0.936528,-1.919473,-1.884753,1.523836,1.738972,-0.525752,-0.805506,0.273396,0.142192,-0.041342,0.371272,-7.259230,-20.493221,14.593689,,,,,,,
1504198050.349044,-2.010465,0.930306,-1.956601,-1.615901,0.817544,1.466361,-0.540753,-0.801803,0.254357,0.211972,0.022872,0.330726,-7.259230,-20.493221,14.593689,,,,,,,
1504198050.359054,-1.985360,0.923915,-1.984667,-1.144660,0.086115,1.219763,-0.551647,-0.797967,0.242762,0.234661,0.119638,0.296956,-8.684599,-20.798138,13.842407,,,,,,,
1504198050.369063,-1.974854,0.917060,-2.003064,-0.611191,-0.570222,1.024375,-0.559184,-0.793817,0.239098,0.246119,0.152444,0.310890,-8.684599,-20.798138,13.842407,,,,,,,
1504198050.379073,-1.977275,0.909426,-2.011735,-0.048593,-1.022254,0.877779,-0.564153,-0.789151,0.242840,0.238363,0.130765,0.350589,-8.460157,-20.796368,13.467957,,,,,,,
1504198050.389083,-1.988663,0.900527,-2.012373,0.434443,-1.226508,0.822403,-0.567747,-0.783655,0.252089,0.213118,0.141351,0.383089,-8.460157,-20.796368,13.467957,,,,,,,
1504198050.399093,-2.004499,0.890022,-2.007699,0.776027,-1.193112,0.843217,-0.571123,-0.777085,0.264493,0.175738,0.142884,0.425784,-8.759825,-20.573910,14.065552,,,,,,,
1504198050.409101,-2.020549,0.878075,-2.000003,0.999891,-0.929656,0.876230,-0.575125,-0.769511,0.277642,0.136877,0.120097,0.441093,-8.759825,-20.573910,14.065552,,,,,,,
1504198050.419111,-2.033975,0.865247,-1.990610,1.135466,-0.514133,0.885339,-0.580129,-0.761256,0.289725,0.112340,0.117106,0.435312,-8.610273,-20.348400,14.139252,,,,,,,
1504198050.429121,-2.042820,0.852237,-1.980619,1.168663,0.017358,0.856707,-0.586316,-0.752755,0.299323,0.109082,0.129967,0.417276,-8.610273,-20.348400,14.139252,,,,,,,
1504198050.439131,-2.045173,0.839768,-1.971029,1.116259,0.636957,0.804288,-0.593914,-0.744488,0.304965,0.127972,0.118572,0.387875,-8.684858,-20.199780,14.662933,,,,,,,
1504198050.449142,-2.041724,0.828077,-1.961853,1.074650,1.132867,0.742499,-0.602677,-0.736632,0.306844,0.159623,0.088622,0.383083,-8.684858,-20.199780,14.662933,,,,,,,
1504198050.459151,-2.035595,0.817091,-1.952140,1.094007,1.366162,0.657797,-0.611744,-0.729158,0.306753,0.194538,0.063036,0.373606,-9.511320,-19.304531,15.179169,,,,,,,
1504198050.469161,-2.029942,0.806812,-1.940851,1.176799,1.374125,0.542647,-0.620155,-0.722086,0.306595,0.232261,0.037271,0.336807,-9.511320,-19.304531,15.179169,,,,,,,
1504198050.479171,-2.027494,0.797081,-1.927311,1.312083,1.141895,0.428011,-0.627180,-0.715320,0.308160,0.263319,0.023547,0.298804,-10.113768,-18.332211,15.170380,,,,,,,
1504198050.489181,-2.030857,0.787653,-1.910782,1.506830,0.731235,0.298850,-0.632156,-0.708699,0.313249,0.291732,0.008214,0.268615,-10.113768,-18.332211,15.170380,,,,,,,
1504198050.499190,-2.040847,0.778541,-1.890700,1.740162,0.319231,0.132398,-0.634726,-0.702241,0.322460,0.316641,-0.020110,0.226017,-10.863157,-18.261639,15.692963,,,,,,,
1504198050.509200,-2.056516,0.769803,-1.866763,1.974758,0.050032,-0.058853,-0.634998,-0.695994,0.335217,0.324619,-0.011007,0.195011,-10.863157,-18.261639,15.692963,,,,,,,
1504198050.519210,-2.075794,0.761383,-1.839543,2.174216,-0.064386,-0.230157,-0.633524,-0.689923,0.350218,0.318659,-0.014743,0.189180,-10.863615,-17.588284,16.512878,,,,,,,
1504198050.529220,-2.097255,0.752675,-1.809536,2.378434,-0.081932,-0.345052,-0.631034,-0.683594,0.366737,0.295035,-0.047272,0.196220,-10.863615,-17.588284,16.512878,,,,,,,
1504198050.539229,-2.118627,0.743646,-1.777206,2.526947,0.133291,-0.470060,-0.628296,-0.676976,0.383338,0.263626,-0.082988,0.182229,-10.639860,-16.688610,17.181702,,,,,,,
1504198050.549239,-2.137286,0.734904,-1.743545,2.580633,0.492096,-0.605092,-0.626004,-0.670516,0.398156,0.234250,-0.129152,0.168388,-10.639860,-16.688610,17.181702,,,,,,,
1504198050.559249,-2.152342,0.726829,-1.709556,2.547883,0.855864,-0.729609,-0.624442,-0.664504,0.410496,0.210410,-0.156557,0.164028,-10.940046,-16.166454,17.927032,,,,,,,
1504198050.569259,-2.163058,0.720040,-1.676096,2.424566,1.237424,-0.850045,-0.623736,-0.659415,0.419672,0.204440,-0.158441,0.118566,-10.940046,-16.166454,17.927032,,,,,,,
1504198050.579268,-2.170980,0.714890,-1.643401,2.293022,1.378247,-0.990351,-0.623187,-0.655535,0.426513,0.215197,-0.142073,0.077699,-11.091551,-15.118619,18.668823,,,,,,,
1504198050.589278,-2.178511,0.711267,-1.610945,2.206071,1.360989,-1.126031,-0.621902,-0.652794,0.432547,0.212463,-0.125801,0.027856,-11.091551,-15.118619,18.668823,,,,,,,
1504198050.599288,-2.182416,0.709244,-1.581252,1.881993,1.534145,-1.117291,-0.621289,-0.651260,0.435730,0.242017,-0.099915,-0.024231,-11.093245,-14.219357,19.037048,,,,,,,
1504198050.609298,-2.178319,0.709546,-1.558933,1.123672,2.092165,-0.919985,-0.622907,-0.651489,0.433069,0.182371,-0.126053,-0.118631,-11.093245,-14.219357,19.037048,,,,,,,
1504198050.619308,-2.151133,0.711307,-1.558136,-0.449113,2.709327,0.092368,-0.633488,-0.652825,0.415346,0.042363,-0.158073,-0.413302,-11.993315,-13.924298,19.482605,,,,,,,
1504198050.629317,-2.118559,0.713194,-1.575546,-1.334859,2.185453,0.574223,-0.645626,-0.654253,0.393852,-0.515308,-0.337233,-0.973641,-11.993315,-13.924298,19.482605,,,,,,,
1504198050.639327,-2.090657,0.716838,-1.592404,-1.218255,1.335578,0.220479,-0.654290,-0.657004,0.374500,-0.908531,-0.500497,-1.876453,-12.968718,-14.526151,18.209656,,,,,,,
1504198050.649337,-2.080504,0.722956,-1.602579,-0.885640,0.057831,-0.275169,-0.654538,-0.661604,0.365870,-0.130481,0.051542,-0.801630,-12.968718,-14.526151,18.209656,,,,,,,
1504198050.659347,-2.082786,0.731792,-1.607839,-0.764176,-0.741961,-0.667419,-0.648579,-0.668204,0.364485,0.458760,0.135550,-0.278074,-13.118376,-14.751523,18.060974,,,,,,,
1504198050.669356,-2.089469,0.742551,-1.612111,-0.817769,-0.983282,-0.790905,-0.639848,-0.676169,0.365225,0.514497,0.176597,-0.172080,-13.118376,-14.751523,18.060974,,,,,,,
1504198050.679366,-2.094517,0.753198,-1.617814,-0.933305,-0.820472,-0.682518,-0.631725,-0.683975,0.364830,0.323177,0.197220,-0.160850,-13.042067,-15.276181,18.065094,,,,,,,
1504198050.689376,-2.093694,0.764575,-1.627166,-1.232832,-0.497294,-0.649450,-0.625243,-0.692230,0.360400,-0.018388,0.056580,-0.167346,-13.042067,-15.276181,18.065094,,,,,,,
1504198050.699386,-2.088130,0.778377,-1.639542,-1.522362,-0.239009,-0.799843,-0.618875,-0.702125,0.352157,-0.226721,0.023688,-0.169524,-12.365675,-16.097256,17.622955,,,,,,,
1504198050.709395,-2.079299,0.793844,-1.653797,-1.667074,-0.090708,-0.854793,-0.612401,-0.713054,0.341349,-0.063212,0.067622,-0.167598,-12.365675,-16.097256,17.622955,,,,,,,
1504198050.719405,-2.068428,0.809916,-1.670122,-1.782776,-0.150493,-0.855955,-0.605927,-0.724229,0.329158,0.107697,-0.014067,0.003941,-12.290037,-16.621029,17.177094,,,,,,,
1504198050.729415,-2.059333,0.821151,-1.683206,-1.119949,0.014101,-0.429204,-0.601672,-0.731930,0.319794,0.054889,-0.021640,0.149200,-12.290037,-16.621029,17.177094,,,,,,,
1504198050.739425,-2.051191,0.823904,-1.690818,-0.435299,0.324360,0.133957,-0.602466,-0.733804,0.313953,-0.017819,-0.085639,0.492673,-11.763792,-17.517330,16.510101,,,,,,,
1504198050.749434,-2.041301,0.821850,-1.701653,-0.708794,0.068200,0.651625,-0.606884,-0.732407,0.308662,-0.314060,-0.203323,1.044411,-11.763792,-17.517330,16.510101,,,,,,,
1504198050.759444,-2.025739,0.818419,-1.718992,-0.901460,0.386056,0.856739,-0.613868,-0.730066,0.300283,-0.403115,-0.184866,0.534221,-12.064161,-17.368679,16.508240,,,,,,,
1504198050.769454,-2.009629,0.814448,-1.734542,-0.748541,0.519135,0.786321,-0.621245,-0.727347,0.291585,-0.308183,-0.318582,-0.361134,-12.064161,-17.368679,16.508240,,,,,,,
1504198050.779464,-1.993572,0.811439,-1.747046,-0.628259,0.751732,0.573706,-0.627839,-0.725279,0.282469,-0.159316,-0.194979,-0.037748,-12.664091,-17.670467,16.058990,,,,,,,
1504198050.789474,-1.977898,0.810027,-1.757411,-0.594724,0.823051,0.381506,-0.633129,-0.724306,0.272999,-0.049305,-0.142942,0.061581,-12.664091,-17.670467,16.058990,,,,,,,
