timestamp(unix),attitude_roll(radians),attitude_pitch(radians),attitude_yaw(radians),rotation_rate_x(radians/s),rotation_rate_y(radians/s),rotation_rate_z(radians/s),gravity_x(G),gravity_y(G),gravity_z(G),user_acc_x(G),user_acc_y(G),user_acc_z(G),magnetic_field_x(microteslas),magnetic_field_y(microteslas),magnetic_field_z(microteslas),latitude(degree),longitude(degree),altitude(meter),speed(m/s),course(degree),timestamp(unix),User Mark
1504198835.986954,0.044204,0.835740,2.256915,-0.062452,-0.160178,-0.033650,0.029635,-0.741793,-0.669974,0.000212,0.210329,-0.201578,17.116976,-15.800778,-26.780548,,,,,,,
1504198835.996964,0.042513,0.834262,2.256387,-0.174936,-0.223178,-0.043340,0.028549,-0.740801,-0.671118,0.003312,0.217257,-0.200602,17.267427,-16.024960,-26.853516,,,,,,,
1504198836.006974,0.040476,0.831575,2.255866,-0.296738,-0.246680,-0.046712,0.027262,-0.738993,-0.673161,0.011328,0.220667,-0.212535,17.267427,-16.024960,-26.853516,,,,,,,
1504198836.016983,0.038418,0.827718,2.255333,-0.411904,-0.241464,-0.051191,0.025986,-0.736389,-0.676059,0.006897,0.213577,-0.218305,17.041872,-16.025219,-27.229095,,,,,,,
1504198836.026993,0.036615,0.822773,2.254761,-0.517276,-0.215013,-0.059959,0.024900,-0.733035,-0.679735,-0.000913,0.210925,-0.201704,17.041872,-16.025219,-27.229095,,,,,,,
1504198836.037003,0.035178,0.816931,2.254053,-0.598112,-0.190892,-0.071883,0.024073,-0.729049,-0.684038,-0.007472,0.208709,-0.191633,16.965746,-15.575559,-27.232666,,,,,,,
1504198836.047013,0.033797,0.810665,2.253226,-0.624851,-0.204515,-0.080445,0.023282,-0.724746,-0.688623,-0.002927,0.196166,-0.185034,16.965746,-15.575559,-27.232666,,,,,,,
1504198836.057022,0.032149,0.804274,2.252343,-0.634729,-0.239598,-0.081467,0.022296,-0.720327,-0.693276,0.000577,0.188727,-0.179832,16.814013,-14.975934,-27.387512,,,,,,,
1504198836.067032,0.030089,0.798158,2.251423,-0.599858,-0.282508,-0.082399,0.021000,-0.716072,-0.697711,-0.003330,0.191078,-0.175092,16.814013,-14.975934,-27.387512,,,,,,,
1504198836.077042,0.028213,0.792626,2.250445,-0.533344,-0.238298,-0.084496,0.019802,-0.712199,-0.701698,-0.007793,0.203700,-0.177025,16.737917,-14.900067,-27.988281,,,,,,,
1504198836.087052,0.026419,0.788053,2.249521,-0.426793,-0.248778,-0.072552,0.018629,-0.708981,-0.704981,-0.010435,0.221738,-0.168554,16.737917,-14.900067,-27.988281,,,,,,,
1504198836.097061,0.024674,0.784434,2.248701,-0.337064,-0.231409,-0.066022,0.017463,-0.706424,-0.707573,-0.015326,0.232609,-0.157555,16.662508,-14.825101,-28.139008,,,,,,,
1504198836.107071,0.022503,0.781734,2.248049,-0.246763,-0.267339,-0.045522,0.015969,-0.704511,-0.709513,-0.024102,0.237989,-0.158712,16.662508,-14.825101,-28.139008,,,,,,,
1504198836.117081,0.020287,0.779794,2.247715,-0.175184,-0.240248,-0.020895,0.014424,-0.703133,-0.710912,-0.015691,0.228356,-0.163859,16.736376,-14.374768,-28.142212,,,,,,,
1504198836.127091,0.018134,0.778582,2.247823,-0.104526,-0.187588,0.015426,0.012909,-0.702271,-0.711793,-0.023285,0.201310,-0.158263,16.736376,-14.374768,-28.142212,,,,,,,
1504198836.137070,0.016329,0.778092,2.248494,-0.029466,-0.114723,0.057056,0.011630,-0.701922,-0.712159,-0.024646,0.186266,-0.160704,16.210436,-14.226377,-28.519623,,,,,,,
1504198836.147080,0.015197,0.778243,2.249719,0.032038,-0.003384,0.097528,0.010822,-0.702029,-0.712066,-0.030735,0.190494,-0.158326,16.210436,-14.226377,-28.519623,,,,,,,
1504198836.157089,0.014665,0.779099,2.251410,0.099772,0.081273,0.129518,0.010434,-0.702638,-0.711471,-0.032910,0.203706,-0.159211,16.211901,-14.676831,-28.291260,,,,,,,
1504198836.167099,0.014423,0.780463,2.253490,0.140584,0.132057,0.157252,0.010248,-0.703608,-0.710514,-0.034708,0.221049,-0.159450,16.211901,-14.676831,-28.291260,,,,,,,
1504198836.177109,0.014066,0.782038,2.255909,0.158650,0.135085,0.176491,0.009980,-0.704727,-0.709409,-0.033905,0.229522,-0.168231,16.211031,-14.376676,-28.368500,,,,,,,
1504198836.187119,0.013876,0.783769,2.258329,0.173755,0.154145,0.173281,0.009827,-0.705954,-0.708190,-0.037736,0.228552,-0.189698,16.211031,-14.376676,-28.368500,,,,,,,
1504198836.197129,0.013909,0.785768,2.260748,0.203892,0.186930,0.173276,0.009831,-0.707368,-0.706777,-0.027455,0.235368,-0.191310,16.212313,-14.752133,-28.140686,,,,,,,
1504198836.207138,0.014419,0.788224,2.263065,0.259675,0.219513,0.164776,0.010166,-0.709102,-0.705032,-0.030186,0.226360,-0.182037,16.212313,-14.752133,-28.140686,,,,,,,
1504198836.217148,0.015299,0.791232,2.265178,0.313263,0.240399,0.149888,0.010754,-0.711220,-0.702887,-0.035107,0.223518,-0.158990,16.437731,-15.050672,-28.362885,,,,,,,
1504198836.227158,0.016110,0.795011,2.267028,0.388825,0.204632,0.130869,0.011281,-0.713871,-0.700186,-0.040624,0.228260,-0.147867,16.437731,-15.050672,-28.362885,,,,,,,
1504198836.237168,0.016593,0.799429,2.268450,0.457728,0.127377,0.096968,0.011567,-0.716958,-0.697020,-0.045548,0.225701,-0.145173,16.362886,-14.976453,-28.138641,,,,,,,
1504198836.247177,0.016499,0.804418,2.269460,0.507246,0.034286,0.073735,0.011442,-0.720427,-0.693436,-0.047758,0.237242,-0.150863,16.362886,-14.976453,-28.138641,,,,,,,
1504198836.257187,0.015452,0.809715,2.270106,0.533076,-0.088442,0.046243,0.010657,-0.724091,-0.689622,-0.046774,0.259644,-0.161650,16.589159,-15.350888,-27.910248,,,,,,,
1504198836.267197,0.013824,0.815146,2.270393,0.545481,-0.153520,0.021829,0.009480,-0.727826,-0.685696,-0.054478,0.247678,-0.188419,16.589159,-15.350888,-27.910248,,,,,,,
1504198836.277207,0.009068,0.805182,2.272800,0.569019,-0.132519,0.005883,0.006284,-0.720957,-0.692952,-0.030255,0.228937,-0.191021,16.139986,-15.727765,-27.983551,,,,,,,
1504198836.287216,0.006189,0.796011,2.274347,0.598404,-0.040148,0.002616,0.004330,-0.714571,-0.699550,-0.015240,0.219240,-0.162862,16.139986,-15.727765,-27.983551,,,,,,,
1504198836.297226,0.006122,0.795735,2.274901,0.611384,0.112105,-0.017890,0.004284,-0.714378,-0.699747,-0.018536,0.223381,-0.125662,16.516054,-15.876981,-27.531494,,,,,,,
1504198836.307236,0.008500,0.801879,2.274272,0.616591,0.212257,-0.045810,0.005910,-0.718664,-0.695332,-0.024129,0.250753,-0.094539,16.516054,-15.876981,-27.531494,,,,,,,
1504198836.317246,0.011979,0.808235,2.273130,0.647159,0.277044,-0.081096,0.008275,-0.723069,-0.690726,-0.029011,0.248063,-0.116708,16.667055,-16.101910,-27.229462,,,,,,,
1504198836.327255,0.016447,0.815037,2.271430,0.692649,0.340641,-0.115286,0.011279,-0.727751,-0.685749,-0.038867,0.223997,-0.121502,16.667055,-16.101910,-27.229462,,,,,,,
1504198836.337265,0.021871,0.822283,2.269280,0.736980,0.399972,-0.137729,0.014883,-0.732701,-0.680388,-0.042242,0.207021,-0.119860,16.743196,-16.551571,-27.225891,,,,,,,
1504198836.347275,0.028247,0.829930,2.266884,0.776066,0.480643,-0.144208,0.019062,-0.737884,-0.674658,-0.043812,0.190536,-0.133584,16.743196,-16.551571,-27.225891,,,,,,,
1504198836.357285,0.035455,0.837880,2.264350,0.806518,0.552853,-0.144282,0.023716,-0.743227,-0.668619,-0.048359,0.177415,-0.139181,17.119814,-16.925777,-26.772095,,,,,,,
1504198836.367295,0.043412,0.846125,2.261819,0.839038,0.622905,-0.134743,0.028768,-0.748718,-0.662265,-0.037069,0.182662,-0.139631,17.119814,-16.925777,-26.772095,,,,,,,
1504198836.377304,0.051910,0.854586,2.259209,0.855315,0.658998,-0.131576,0.034065,-0.754299,-0.655647,-0.032417,0.199444,-0.136941,17.346239,-17.225674,-26.319305,,,,,,,
1504198836.387314,0.060518,0.863140,2.256389,0.862667,0.639764,-0.139001,0.039316,-0.759888,-0.648864,-0.032999,0.213593,-0.136246,17.346239,-17.225674,-26.319305,,,,,,,
1504198836.397324,0.068922,0.871650,2.253191,0.861203,0.580119,-0.154910,0.044321,-0.765392,-0.642037,-0.031625,0.206157,-0.158668,17.722811,-17.450329,-25.641693,,,,,,,
1504198836.407303,0.076980,0.880117,2.249656,0.859703,0.519403,-0.165479,0.048992,-0.770814,-0.635174,-0.023663,0.178467,-0.180179,17.722811,-17.450329,-25.641693,,,,,,,
1504198836.417313,0.084791,0.888374,2.245928,0.834912,0.486576,-0.167599,0.053411,-0.776047,-0.628409,-0.012686,0.153000,-0.184396,17.949251,-17.750210,-25.188873,,,,,,,
1504198836.427323,0.092406,0.896257,2.242274,0.795280,0.475168,-0.154839,0.057629,-0.780995,-0.621873,-0.010510,0.138707,-0.172912,17.949251,-17.750210,-25.188873,,,,,,,
1504198836.437332,0.099867,0.903638,2.238900,0.741897,0.485174,-0.131466,0.061690,-0.785583,-0.615673,-0.009566,0.133255,-0.165989,18.101610,-18.201183,-24.360107,,,,,,,
1504198836.447342,0.107021,0.910426,2.235965,0.676629,0.481417,-0.100618,0.065523,-0.789765,-0.609900,-0.009126,0.126343,-0.150338,18.101610,-18.201183,-24.360107,,,,,,,
1504198836.457352,0.113524,0.916546,2.233769,0.603775,0.473442,-0.052697,0.068938,-0.793504,-0.604648,-0.001220,0.115938,-0.137891,18.626909,-18.273983,-24.283234,,,,,,,
1504198836.467362,0.119213,0.921932,2.232598,0.520285,0.478328,0.009059,0.071868,-0.796770,-0.599993,0.008211,0.104662,-0.130262,18.626909,-18.273983,-24.283234,,,,,,,
1504198836.477359,0.124029,0.926460,2.232669,0.424008,0.488642,0.076120,0.074309,-0.799499,-0.596054,0.015870,0.092437,-0.118103,18.703341,-18.574535,-23.830780,,,,,,,
1504198836.487369,0.127958,0.929911,2.233991,0.300053,0.501324,0.134590,0.076298,-0.801567,-0.593017,0.031566,0.082466,-0.113663,18.703341,-18.574535,-23.830780,,,,,,,
1504198836.497379,0.131238,0.932059,2.236120,0.163315,0.493902,0.156782,0.078017,-0.802849,-0.591055,0.048249,0.092110,-0.116693,18.853533,-18.424618,-23.456543,,,,,,,
1504198836.507389,0.133971,0.932944,2.238397,0.041326,0.438448,0.139590,0.079538,-0.803376,-0.590136,0.048316,0.125886,-0.124907,18.853533,-18.424618,-23.456543,,,,,,,
1504198836.517399,0.136050,0.932811,2.240243,-0.047912,0.325210,0.094804,0.080779,-0.803297,-0.590075,0.037095,0.160505,-0.139127,19.004732,-18.724545,-23.153900,,,,,,,
1504198836.527408,0.137407,0.931901,2.241311,-0.113834,0.183025,0.035166,0.081679,-0.802755,-0.590688,0.016633,0.176199,-0.155604,19.004732,-18.724545,-23.153900,,,,,,,
1504198836.537418,0.137894,0.930338,2.241549,-0.169155,0.034355,-0.021240,0.082140,-0.801822,-0.591891,-0.005769,0.173694,-0.174818,19.379503,-18.498302,-22.929688,,,,,,,
1504198836.547428,0.137829,0.928347,2.241131,-0.198493,-0.055939,-0.059558,0.082320,-0.800631,-0.593476,-0.013213,0.167132,-0.196578,19.379503,-18.498302,-22.929688,,,,,,,
1504198836.557438,0.137970,0.926372,2.240441,-0.183262,-0.025152,-0.069193,0.082621,-0.799446,-0.595030,-0.007014,0.163078,-0.203905,18.930254,-18.800320,-22.928558,,,,,,,
1504198836.567447,0.139122,0.924931,2.239674,-0.118390,0.085130,-0.063938,0.083466,-0.798579,-0.596074,-0.008317,0.171931,-0.171580,18.930254,-18.800320,-22.928558,,,,,,,
1504198836.577457,0.141565,0.924245,2.238930,-0.041639,0.218749,-0.050164,0.084999,-0.798166,-0.596411,-0.015038,0.188578,-0.113977,18.928835,-18.499432,-23.380768,,,,,,,
1504198836.587467,0.145065,0.924308,2.238225,0.027335,0.313006,-0.037402,0.087079,-0.798204,-0.596060,-0.021024,0.196458,-0.077249,18.928835,-18.499432,-23.380768,,,,,,,
1504198836.597477,0.148906,0.924884,2.237634,0.070170,0.341410,-0.023502,0.089300,-0.798551,-0.595266,-0.023031,0.186429,-0.076639,19.454546,-18.647518,-23.153351,,,,,,,
1504198836.607486,0.152487,0.925609,2.237227,0.073089,0.314732,-0.009573,0.091343,-0.798987,-0.594370,-0.012531,0.172812,-0.103048,19.454546,-18.647518,-23.153351,,,,,,,
1504198836.617496,0.155382,0.926079,2.237035,0.038496,0.261731,-0.004203,0.093005,-0.799270,-0.593732,0.003354,0.163985,-0.126986,19.379915,-18.797848,-23.152405,,,,,,,
1504198836.627506,0.157892,0.926072,2.236849,-0.010799,0.228049,-0.014903,0.094496,-0.799265,-0.593503,0.018038,0.158335,-0.164523,19.379915,-18.797848,-23.152405,,,,,,,
1504198836.637516,0.160717,0.909271,2.236098,-0.069852,0.193389,-0.035216,0.098308,-0.789056,-0.606404,0.029408,0.154596,-0.167689,19.530107,-18.647930,-22.778168,,,,,,,
1504198836.647525,0.162724,0.907971,2.235405,-0.137436,0.123656,-0.073636,0.099691,-0.788257,-0.607217,0.034129,0.162158,-0.162955,19.530107,-18.647930,-22.778168,,,,,,,
1504198836.657535,0.163873,0.905968,2.234264,-0.201276,-0.011110,-0.110868,0.100645,-0.787023,-0.608659,0.032106,0.164754,-0.173140,19.455294,-18.723263,-22.777802,,,,,,,
1504198836.667514,0.163652,0.903207,2.232870,-0.277133,-0.173496,-0.136331,0.100865,-0.785316,-0.610823,0.030575,0.160423,-0.191728,19.455294,-18.723263,-22.777802,,,,,,,
1504198836.677524,0.159828,0.884326,2.233032,-0.341392,-0.322192,-0.150030,0.100870,-0.773488,-0.625733,0.020819,0.143849,-0.198272,19.979570,-18.570446,-23.002625,,,,,,,
1504198836.687534,0.157017,0.880442,2.231575,-0.374103,-0.411431,-0.152064,0.099580,-0.771020,-0.628976,0.014343,0.145410,-0.210852,19.979570,-18.570446,-23.002625,,,,,,,
1504198836.697544,0.153895,0.876478,2.230219,-0.378405,-0.410339,-0.143534,0.098083,-0.768490,-0.632299,0.012619,0.154675,-0.197107,19.753038,-18.270412,-23.530426,,,,,,,
1504198836.707554,0.151050,0.872675,2.229108,-0.358856,-0.354045,-0.122252,0.096723,-0.766051,-0.635461,0.010119,0.164992,-0.162711,19.753038,-18.270412,-23.530426,,,,,,,
1504198836.717563,0.146593,0.858262,2.229962,-0.322168,-0.268113,-0.094565,0.095493,-0.756707,-0.646742,0.005337,0.147516,-0.127443,19.451677,-17.821468,-23.684570,,,,,,,
1504198836.727573,0.144768,0.855357,2.229457,-0.266342,-0.208926,-0.068955,0.094629,-0.754805,-0.649088,0.002646,0.133742,-0.113241,19.451677,-17.821468,-23.684570,,,,,,,
1504198836.737583,0.143026,0.853262,2.229171,-0.184247,-0.198975,-0.041078,0.093723,-0.753429,-0.650815,0.005169,0.136318,-0.103396,19.676638,-17.895153,-23.833435,,,,,,,
1504198836.747593,0.140797,0.851895,2.228971,-0.119656,-0.253864,-0.030195,0.092417,-0.752530,-0.652042,0.009023,0.152432,-0.098477,19.676638,-17.895153,-23.833435,,,,,,,
1504198836.757602,0.137667,0.839925,2.228908,-0.096880,-0.325449,-0.032156,0.091605,-0.744593,-0.661203,0.012246,0.145915,-0.098425,19.599825,-17.444592,-24.287018,,,,,,,
1504198836.767612,0.134212,0.838881,2.228516,-0.103717,-0.387186,-0.043801,0.089424,-0.743895,-0.662286,0.024468,0.141250,-0.117301,19.599825,-17.444592,-24.287018,,,,,,,
1504198836.777622,0.130549,0.837532,2.227745,-0.138065,-0.436946,-0.082199,0.087129,-0.742993,-0.663603,0.023727,0.142896,-0.123521,19.151110,-17.822063,-24.060333,,,,,,,
1504198836.787632,0.126743,0.835563,2.226340,-0.199168,-0.503524,-0.131288,0.084787,-0.741674,-0.665380,0.027716,0.146947,-0.119044,19.151110,-17.822063,-24.060333,,,,,,,
1504198836.797641,0.124981,0.822269,2.222620,-0.284075,-0.587978,-0.167590,0.084836,-0.732692,-0.675252,0.032138,0.154735,-0.120707,18.774492,-17.447857,-24.514069,,,,,,,
1504198836.807651,0.119924,0.818580,2.220358,-0.370113,-0.698051,-0.207039,0.081743,-0.730177,-0.678351,0.020781,0.146360,-0.125879,18.774492,-17.447857,-24.514069,,,,,,,
1504198836.817661,0.114361,0.814220,2.217707,-0.423842,-0.765773,-0.239034,0.078331,-0.727191,-0.681952,0.024788,0.144351,-0.140421,18.699160,-17.447735,-24.739258,,,,,,,
1504198836.827671,0.108513,0.809221,2.214858,-0.484809,-0.794027,-0.254034,0.074734,-0.723750,-0.686004,0.033130,0.152232,-0.133088,18.699160,-17.447735,-24.739258,,,,,,,
1504198836.837681,0.103181,0.802485,2.211544,-0.513455,-0.783109,-0.272250,0.071575,-0.719085,-0.691226,0.029545,0.150268,-0.117154,18.472628,-17.147701,-25.267059,,,,,,,
1504198836.847690,0.097876,0.796950,2.208230,-0.532403,-0.761623,-0.289399,0.068295,-0.715227,-0.695547,0.028674,0.151842,-0.102503,18.472628,-17.147701,-25.267059,,,,,,,
1504198836.857700,0.093000,0.791194,2.204673,-0.555550,-0.731578,-0.306571,0.065285,-0.711193,-0.699958,0.027519,0.147656,-0.082116,18.320513,-16.622326,-25.796387,,,,,,,
1504198836.867710,0.088760,0.785270,2.200885,-0.565699,-0.677131,-0.323763,0.062688,-0.707016,-0.704413,0.019892,0.135788,-0.070077,18.320513,-16.622326,-25.796387,,,,,,,
1504198836.877720,0.085523,0.779111,2.196760,-0.572365,-0.591801,-0.348475,0.060778,-0.702647,-0.708938,0.011777,0.130428,-0.054246,17.869585,-16.473598,-26.173615,,,,,,,
1504198836.887729,0.083441,0.773086,2.192328,-0.576826,-0.495838,-0.370000,0.059654,-0.698347,-0.713269,0.009346,0.132399,-0.034381,17.869585,-16.473598,-26.173615,,,,,,,
1504198836.897739,0.082343,0.767096,2.187679,-0.563306,-0.414950,-0.383996,0.059214,-0.694048,-0.717490,0.003316,0.124376,-0.023599,17.643404,-16.323574,-26.700348,,,,,,,
1504198836.907749,0.081994,0.761183,2.182930,-0.562741,-0.348879,-0.391583,0.059299,-0.689779,-0.721588,-0.009601,0.114614,-0.020661,17.643404,-16.323574,-26.700348,,,,,,,
1504198836.917759,0.081828,0.754741,2.178191,-0.593514,-0.334764,-0.403402,0.059541,-0.685100,-0.726012,-0.017289,0.110500,-0.014040,17.791903,-15.947156,-27.077789,,,,,,,
1504198836.927768,0.081588,0.748076,2.173328,-0.650287,-0.366258,-0.408782,0.059737,-0.680230,-0.730561,-0.019134,0.112053,-0.029876,17.791903,-15.947156,-27.077789,,,,,,,
1504198836.937748,0.080874,0.740862,2.168473,-0.701826,-0.411647,-0.416263,0.059611,-0.674924,-0.735475,-0.024577,0.111631,-0.048186,17.190966,-15.574841,-27.082062,,,,,,,
1504198836.947757,0.079869,0.733372,2.163484,-0.719063,-0.442391,-0.432249,0.059273,-0.669379,-0.740553,-0.036187,0.112738,-0.047197,17.190966,-15.574841,-27.082062,,,,,,,
1504198836.957767,0.078815,0.725891,2.158389,-0.687975,-0.433044,-0.447155,0.058886,-0.663802,-0.745586,-0.040071,0.118697,-0.040058,17.412584,-14.672330,-27.838318,,,,,,,
1504198836.967777,0.078520,0.719131,2.152994,-0.623362,-0.366430,-0.459969,0.059016,-0.658731,-0.750060,-0.048182,0.120706,-0.024659,17.412584,-14.672330,-27.838318,,,,,,,
1504198836.977787,0.079383,0.713233,2.147327,-0.530627,-0.255287,-0.478150,0.059970,-0.654282,-0.753869,-0.063495,0.126816,-0.012244,17.636110,-14.445127,-28.439423,,,,,,,
1504198836.987796,0.081711,0.708335,2.141336,-0.421760,-0.128293,-0.496331,0.061986,-0.650570,-0.756912,-0.073918,0.144589,-0.004715,17.636110,-14.445127,-28.439423,,,,,,,
1504198836.997806,0.085507,0.704513,2.134837,-0.311849,-0.017269,-0.535830,0.065071,-0.647663,-0.759143,-0.086586,0.159275,-0.005780,17.409258,-13.845685,-28.669464,,,,,,,
1504198837.007816,0.088117,0.700178,2.129123,-0.212749,0.059719,-0.606226,0.067298,-0.644354,-0.761760,-0.097251,0.172857,-0.016224,17.409258,-13.845685,-28.669464,,,,,,,
1504198837.017826,0.094490,0.698178,2.120604,-0.112834,0.094148,-0.689371,0.072273,-0.642823,-0.762598,-0.095131,0.192200,-0.039999,17.408922,-13.620984,-28.521179,,,,,,,
1504198837.027836,0.101751,0.697016,2.110743,-0.019539,0.091351,-0.788472,0.077884,-0.641932,-0.762795,-0.099322,0.207805,-0.062552,17.408922,-13.620984,-28.521179,,,,,,,
1504198837.037845,0.109722,0.696465,2.099507,0.052259,0.070613,-0.884378,0.084000,-0.641510,-0.762502,-0.106949,0.214340,-0.081172,17.932787,-13.168622,-28.523254,,,,,,,
1504198837.047855,0.117584,0.695817,2.087504,0.097218,0.041541,-0.962165,0.090041,-0.641013,-0.762231,-0.104980,0.210532,-0.095329,17.932787,-13.168622,-28.523254,,,,,,,
1504198837.057865,0.126167,0.695575,2.074337,0.097208,0.004305,-1.019739,0.096600,-0.640827,-0.761583,-0.106045,0.208317,-0.106352,18.157869,-13.242459,-28.597137,,,,,,,
1504198837.067875,0.134719,0.694787,2.060577,0.042690,-0.039949,-1.069924,0.103177,-0.640221,-0.761230,-0.104962,0.209329,-0.115052,18.157869,-13.242459,-28.597137,,,,,,,
1504198837.077884,0.142832,0.693084,2.046408,-0.041981,-0.113800,-1.111569,0.109505,-0.638913,-0.761446,-0.097038,0.205121,-0.128462,18.156618,-12.792310,-28.675507,,,,,,,
1504198837.087894,0.149443,0.689663,2.032395,-0.148371,-0.230113,-1.146769,0.114861,-0.636277,-0.762862,-0.094231,0.185045,-0.145753,18.156618,-12.792310,-28.675507,,,,,,,
1504198837.097904,0.155260,0.685647,2.017748,-0.251840,-0.385862,-1.187235,0.119691,-0.633174,-0.764699,-0.095933,0.169734,-0.157084,18.456133,-12.640805,-28.750916,,,,,,,
1504198837.107914,0.159522,0.680540,2.002955,-0.350050,-0.546989,-1.221278,0.123460,-0.629213,-0.767365,-0.081209,0.163271,-0.164413,18.456133,-12.640805,-28.750916,,,,,,,
1504198837.117923,0.162242,0.674375,1.987988,-0.445022,-0.704943,-1.257456,0.126171,-0.624409,-0.770840,-0.074627,0.159153,-0.157734,18.453646,-11.740506,-28.907684,,,,,,,
1504198837.127933,0.163437,0.667284,1.973036,-0.528209,-0.842772,-1.271233,0.127810,-0.618855,-0.775037,-0.062212,0.157384,-0.149203,18.453646,-11.740506,-28.907684,,,,,,,
1504198837.137943,0.163237,0.659593,1.958294,-0.580304,-0.951037,-1.267930,0.128425,-0.612796,-0.779736,-0.054572,0.147753,-0.136707,18.526491,-11.288831,-29.585876,,,,,,,
1504198837.147953,0.161994,0.651689,1.943892,-0.595872,-1.015934,-1.245427,0.128232,-0.606530,-0.784651,-0.056348,0.134484,-0.108201,18.526491,-11.288831,-29.585876,,,,,,,
1504198837.157962,0.159988,0.644061,1.929957,-0.560024,-1.046105,-1.207953,0.127392,-0.600448,-0.789452,-0.051800,0.123382,-0.076393,17.923983,-10.465924,-29.893555,,,,,,,
1504198837.167972,0.157740,0.637239,1.916408,-0.477869,-1.023376,-1.171559,0.126257,-0.594978,-0.793763,-0.051657,0.118263,-0.047759,17.923983,-10.465924,-29.893555,,,,,,,
1504198837.177982,0.156055,0.631436,1.902938,-0.378065,-0.944289,-1.160851,0.125454,-0.590305,-0.797372,-0.050869,0.129947,-0.008445,17.696001,-9.640729,-30.500305,,,,,,,
1504198837.187992,0.155352,0.626616,1.889337,-0.283363,-0.842772,-1.160866,0.125332,-0.586407,-0.800261,-0.040890,0.143216,0.017058,17.696001,-9.640729,-30.500305,,,,,,,
1504198837.198002,0.155709,0.622654,1.875606,-0.197218,-0.743316,-1.159825,0.125977,-0.583193,-0.802505,-0.033723,0.139071,0.019745,17.544008,-9.115506,-30.954651,,,,,,,
1504198837.207981,0.156809,0.619335,1.861887,-0.142307,-0.674515,-1.149177,0.127161,-0.580494,-0.804274,-0.038095,0.125538,0.024580,17.544008,-9.115506,-30.954651,,,,,,,
1504198837.217991,0.157858,0.616436,1.848537,-0.109400,-0.669501,-1.107500,0.128269,-0.578131,-0.805799,-0.033970,0.115530,0.023755,17.167879,-8.667188,-30.958954,,,,,,,
1504198837.228000,0.158797,0.613569,1.835917,-0.128400,-0.608664,-1.051068,0.129288,-0.575789,-0.807311,-0.033615,0.100508,0.015960,17.167879,-8.667188,-30.958954,,,,,,,
1504198837.238010,0.160507,0.610302,1.823791,-0.177840,-0.503856,-1.024653,0.130967,-0.573115,-0.808942,-0.040345,0.088801,0.029813,17.166231,-8.141736,-31.187897,,,,,,,
1504198837.248020,0.162812,0.606379,1.811913,-0.247643,-0.427622,-1.025976,0.133195,-0.569896,-0.810850,-0.037873,0.100856,0.100889,17.166231,-8.141736,-31.187897,,,,,,,
1504198837.258030,0.165728,0.601571,1.800089,-0.336733,-0.370396,-1.041175,0.136010,-0.565938,-0.813152,-0.043755,0.101400,0.133662,16.639421,-7.693204,-31.642578,,,,,,,
1504198837.268039,0.168247,0.596369,1.789012,-0.351222,-0.401256,-0.966428,0.138548,-0.561642,-0.815698,-0.050429,0.108151,0.151650,16.639421,-7.693204,-31.642578,,,,,,,
1504198837.278049,0.168089,0.591746,1.778740,-0.300062,-0.612770,-0.866698,0.138852,-0.557811,-0.818271,-0.031034,0.191203,0.108035,16.713060,-7.242566,-31.795746,,,,,,,
1504198837.288059,0.167535,0.587864,1.770332,-0.203836,-0.502877,-0.731166,0.138759,-0.554585,-0.820476,0.005574,0.349995,-0.056690,16.713060,-7.242566,-31.795746,,,,,,,
1504198837.298069,0.164514,0.586495,1.761050,0.037287,-0.942760,-0.792949,0.136404,-0.553445,-0.821640,-0.106436,0.065195,-0.030258,16.411592,-6.793469,-32.024872,,,,,,,
1504198837.308078,0.160697,0.585523,1.751886,0.004103,-0.805054,-0.764429,0.133353,-0.552635,-0.822686,-0.007178,0.085457,-0.110496,16.411592,-6.793469,-32.024872,,,,,,,
1504198837.318088,0.159421,0.583956,1.742794,-0.028300,-0.596979,-0.779796,0.132440,-0.551328,-0.823709,-0.087412,0.153669,-0.220862,15.735216,-6.420896,-32.329376,,,,,,,
1504198837.328098,0.158848,0.583176,1.733125,0.080694,-0.599968,-0.818029,0.132036,-0.550678,-0.824209,-0.103868,0.131778,0.029974,15.735216,-6.420896,-32.329376,,,,,,,
1504198837.338108,0.158033,0.584041,1.722919,0.276555,-0.660184,-0.822920,0.131290,-0.551399,-0.823846,-0.103809,0.126564,-0.008323,15.510241,-6.571469,-32.553802,,,,,,,
1504198837.348118,0.156143,0.587593,1.712794,0.580727,-0.756509,-0.782727,0.129427,-0.554360,-0.822152,-0.118395,0.114662,-0.045234,15.510241,-6.571469,-32.553802,,,,,,,
1504198837.358127,0.152669,0.592924,1.703218,0.604484,-0.903898,-0.647934,0.126119,-0.558788,-0.819664,-0.137303,0.117245,-0.055107,15.209566,-6.347653,-32.631226,,,,,,,
1504198837.368137,0.148406,0.594997,1.696927,0.158795,-0.728896,-0.425927,0.122452,-0.560506,-0.819047,-0.159409,0.102926,-0.093871,15.209566,-6.347653,-32.631226,,,,,,,
1504198837.378147,0.143522,0.593904,1.692293,-0.092634,-0.805697,-0.409149,0.118537,-0.559601,-0.820241,-0.047401,0.062424,0.069356,14.684801,-6.574567,-32.855835,,,,,,,
1504198837.388157,0.136597,0.590926,1.686313,-0.276422,-1.079996,-0.579768,0.113081,-0.557130,-0.822690,0.034807,0.093003,0.218122,14.684801,-6.574567,-32.855835,,,,,,,
1504198837.398166,0.128667,0.585809,1.678845,-0.468154,-1.256235,-0.712148,0.106918,-0.552874,-0.826377,-0.070831,0.179415,0.074180,14.084017,-6.351972,-33.009003,,,,,,,
1504198837.408176,0.119702,0.579402,1.670364,-0.566985,-1.394923,-0.799601,0.099926,-0.547524,-0.830802,-0.201626,0.184883,0.065269,14.084017,-6.351972,-33.009003,,,,,,,
1504198837.418186,0.109550,0.573075,1.661412,-0.523216,-1.535926,-0.816355,0.091864,-0.542219,-0.835200,-0.204550,0.146772,0.073238,13.106691,-5.829999,-33.690369,,,,,,,
1504198837.428196,0.097558,0.568529,1.652478,-0.313768,-1.742278,-0.784674,0.082081,-0.538393,-0.838687,-0.145390,0.120485,0.058078,13.106691,-5.829999,-33.690369,,,,,,,
1504198837.438205,0.083078,0.566350,1.644051,-0.101230,-1.930595,-0.701783,0.070026,-0.536556,-0.840954,-0.123707,0.067836,0.048154,12.055758,-5.459729,-33.695770,,,,,,,
1504198837.448215,0.067311,0.566364,1.636708,0.093319,-1.960005,-0.608529,0.056758,-0.536568,-0.841946,-0.078685,0.021294,0.023175,12.055758,-5.459729,-33.695770,,,,,,,
1504198837.458225,0.051723,0.567985,1.628907,0.222577,-1.983375,-0.677645,0.043582,-0.537935,-0.841859,-0.008624,-0.056578,0.072862,10.853884,-5.163617,-34.451019,,,,,,,
1504198837.468204,0.037352,0.569611,1.618643,0.182169,-1.985984,-0.923213,0.031447,-0.539305,-0.841523,0.052293,-0.047685,0.079377,10.853884,-5.163617,-34.451019,,,,,,,
1504198837.478181,0.025017,0.570123,1.605083,0.053652,-1.957988,-1.209548,0.021058,-0.539736,-0.841571,0.056030,0.029940,0.051150,9.503862,-5.244397,-34.603760,,,,,,,
1504198837.488191,0.014903,0.569444,1.588581,-0.072555,-1.876783,-1.445806,0.012551,-0.539164,-0.842107,0.014503,0.021326,0.059011,9.503862,-5.244397,-34.603760,,,,,,,
1504198837.498200,0.007073,0.567888,1.569206,-0.150753,-1.806612,-1.699040,0.005963,-0.537853,-0.843018,0.002689,-0.007222,0.069931,8.227922,-5.099378,-34.983032,,,,,,,
1504198837.508210,0.001913,0.566395,1.546735,-0.128298,-1.692513,-1.954311,0.001614,-0.536593,-0.843839,0.009998,-0.021024,0.077589,8.227922,-5.099378,-34.983032,,,,,,,
1504198837.518220,-0.000523,0.566371,1.521851,0.052107,-1.529703,-2.140014,-0.000441,-0.536574,-0.843853,-0.022752,-0.062639,0.098507,7.026873,-4.729611,-35.063812,,,,,,,
1504198837.528230,-0.000209,0.569124,1.495091,0.314705,-1.349483,-2.305322,-0.000176,-0.538895,-0.842373,-0.054404,-0.092178,0.137020,7.026873,-4.729611,-35.063812,,,,,,,
1504198837.538240,0.004300,0.573799,1.466045,0.533669,-1.023972,-2.474166,0.003611,-0.542827,-0.839837,-0.099940,-0.104405,0.171609,6.049807,-4.133252,-35.445740,,,,,,,
1504198837.548249,0.012426,0.581091,1.435834,0.817532,-0.789681,-2.538131,0.010386,-0.548936,-0.835800,-0.157969,-0.065764,0.160415,6.049807,-4.133252,-35.445740,,,,,,,
1504198837.558259,0.023016,0.590573,1.404844,1.048447,-0.615731,-2.564723,0.019116,-0.556837,-0.830402,-0.184231,-0.076235,0.139499,5.451097,-4.511395,-35.219391,,,,,,,
1504198837.568269,0.034962,0.601724,1.373754,1.229220,-0.532015,-2.522928,0.028815,-0.566064,-0.823857,-0.208869,-0.086188,0.059773,5.451097,-4.511395,-35.219391,,,,,,,
1504198837.578279,0.047813,0.613852,1.343050,1.336213,-0.446663,-2.446041,0.039069,-0.576021,-0.816501,-0.226752,-0.108885,0.011188,5.002718,-5.113568,-35.140991,,,,,,,
1504198837.588289,0.061567,0.626300,1.312745,1.386619,-0.368300,-2.372441,0.049850,-0.586151,-0.808667,-0.236618,-0.137009,-0.018634,5.002718,-5.113568,-35.140991,,,,,,,
1504198837.598299,0.075676,0.638543,1.282786,1.381026,-0.364053,-2.313751,0.060707,-0.596026,-0.800667,-0.248497,-0.154645,-0.024940,4.853212,-5.264401,-35.065247,,,,,,,
1504198837.608309,0.090204,0.650162,1.252628,1.352239,-0.354237,-2.302077,0.071704,-0.605316,-0.792749,-0.253299,-0.144562,-0.052282,4.853212,-5.264401,-35.065247,,,,,,,
1504198837.618319,0.105262,0.661337,1.222261,1.342608,-0.342462,-2.277564,0.082916,-0.614173,-0.784804,-0.254608,-0.076226,-0.092912,5.081377,-6.388837,-34.831238,,,,,,,
1504198837.628327,0.120852,0.671685,1.192009,1.272308,-0.297178,-2.228665,0.094370,-0.622306,-0.777065,-0.263071,-0.039697,-0.115895,5.081377,-6.388837,-34.831238,,,,,,,
1504198837.638337,0.136803,0.680778,1.162371,1.170975,-0.247404,-2.154210,0.105976,-0.629398,-0.769823,-0.263096,-0.017773,-0.146910,4.932726,-6.839810,-34.678253,,,,,,,
1504198837.648347,0.152516,0.688468,1.134051,1.039361,-0.211294,-2.020009,0.117320,-0.635355,-0.763256,-0.263804,-0.021490,-0.166767,4.932726,-6.839810,-34.678253,,,,,,,
1504198837.658357,0.167071,0.694076,1.108086,0.804912,-0.197829,-1.840048,0.127822,-0.639676,-0.757942,-0.274428,-0.054584,-0.182793,5.384462,-7.438092,-34.522614,,,,,,,
1504198837.668366,0.179631,0.696917,1.084868,0.512324,-0.249951,-1.660072,0.137006,-0.641856,-0.754486,-0.285504,-0.088856,-0.207931,5.384462,-7.438092,-34.522614,,,,,,,
1504198837.678376,0.189285,0.697033,1.064665,0.222420,-0.360714,-1.470382,0.144269,-0.641945,-0.753055,-0.297406,-0.057228,-0.245983,5.160738,-7.814557,-34.295380,,,,,,,
1504198837.688386,0.195771,0.694608,1.047587,-0.054665,-0.474771,-1.289202,0.149453,-0.640085,-0.753628,-0.294640,-0.020697,-0.270984,5.160738,-7.814557,-34.295380,,,,,,,
1504198837.698396,0.199416,0.689975,1.032962,-0.288851,-0.597645,-1.166640,0.152784,-0.636518,-0.755977,-0.274931,-0.004427,-0.266484,5.386461,-7.963986,-34.068695,,,,,,,
1504198837.708406,0.200908,0.683477,1.019992,-0.482047,-0.697358,-1.096351,0.154735,-0.631493,-0.759786,-0.248881,0.007485,-0.244212,5.386461,-7.963986,-34.068695,,,,,,,
1504198837.718415,0.200742,0.675292,1.008117,-0.662157,-0.782227,-1.059154,0.155633,-0.625125,-0.764851,-0.217538,0.031147,-0.216793,4.859987,-7.515897,-34.298370,,,,,,,
1504198837.728426,0.199178,0.665517,0.997271,-0.826098,-0.840599,-1.012370,0.155639,-0.617465,-0.771047,-0.200042,0.042865,-0.196269,4.859987,-7.515897,-34.298370,,,,,,,
1504198837.738405,0.196475,0.654737,0.987771,-0.928017,-0.854771,-0.922859,0.154845,-0.608950,-0.777948,-0.195067,0.058749,-0.182029,4.558870,-7.067243,-34.302490,,,,,,,
1504198837.748415,0.193098,0.643664,0.979643,-0.964501,-0.818345,-0.822651,0.153501,-0.600131,-0.785035,-0.187391,0.062716,-0.154631,4.558870,-7.067243,-34.302490,,,,,,,
1504198837.758425,0.189580,0.632801,0.972694,-0.955807,-0.743915,-0.735240,0.151959,-0.591406,-0.791927,-0.181042,0.046133,-0.108845,3.882067,-6.395123,-34.384186,,,,,,,
1504198837.768435,0.185775,0.622339,0.966718,-0.899823,-0.655974,-0.696871,0.150079,-0.582937,-0.798537,-0.173715,0.035482,-0.054704,3.882067,-6.395123,-34.384186,,,,,,,
1504198837.778444,0.183795,0.612807,0.960107,-0.814639,-0.553297,-0.711848,0.149506,-0.575166,-0.804259,-0.166383,0.033159,-0.003862,3.804995,-5.794721,-34.763885,,,,,,,
1504198837.788454,0.183275,0.604290,0.952726,-0.697216,-0.445517,-0.765204,0.149975,-0.568178,-0.809123,-0.154278,0.042437,0.036998,3.804995,-5.794721,-34.763885,,,,,,,
1504198837.798464,0.184589,0.596920,0.944110,-0.559157,-0.317619,-0.859122,0.151803,-0.562097,-0.813021,-0.141549,0.050287,0.070070,3.579470,-5.496030,-34.616699,,,,,,,
1504198837.808474,0.188005,0.590920,0.933868,-0.385940,-0.209169,-0.974293,0.155206,-0.557125,-0.815796,-0.129144,0.064373,0.090729,3.579470,-5.496030,-34.616699,,,,,,,
1504198837.818482,0.192813,0.586856,0.921963,-0.149411,-0.176919,-1.070006,0.159560,-0.553746,-0.817255,-0.117171,0.100850,0.095347,3.353304,-5.121732,-34.770050,,,,,,,
1504198837.828492,0.198409,0.585017,0.908564,0.097369,-0.186329,-1.148549,0.164331,-0.552213,-0.817347,-0.110452,0.125486,0.074076,3.353304,-5.121732,-34.770050,,,,,,,
1504198837.838502,0.204385,0.585015,0.894031,0.284142,-0.208065,-1.195153,0.169213,-0.552212,-0.816351,-0.111596,0.133343,0.045981,2.977922,-4.973416,-34.772095,,,,,,,
1504198837.848512,0.210780,0.586100,0.878922,0.387832,-0.193983,-1.212077,0.174304,-0.553116,-0.814666,-0.127277,0.120545,0.022262,2.977922,-4.973416,-34.772095,,,,,,,
1504198837.858522,0.217524,0.587515,0.863493,0.414745,-0.173941,-1.228076,0.179625,-0.554294,-0.812707,-0.149825,0.078327,0.008020,2.977922,-4.973416,-34.772095,,,,,,,
1504198837.868531,0.224368,0.588658,0.848157,0.380955,-0.134231,-1.235676,0.185042,-0.555246,-0.810840,-0.173766,0.029153,-0.002667,2.977922,-4.973416,-34.772095,,,,,,,
1504198837.878541,0.231844,0.589170,0.832594,0.333190,-0.114638,-1.253939,0.191033,-0.555671,-0.809158,-0.190148,-0.011834,-0.005219,3.203493,-5.197415,-34.769867,,,,,,,
1504198837.888551,0.239215,0.589310,0.816778,0.319127,-0.156052,-1.281642,0.196974,-0.555788,-0.807652,-0.193342,-0.029646,-0.007183,3.203493,-5.197415,-34.769867,,,,,,,
1504198837.898561,0.245951,0.589205,0.800698,0.306819,-0.242240,-1.304995,0.202424,-0.555700,-0.806363,-0.188096,-0.022242,-0.012713,2.979204,-5.348874,-34.544281,,,,,,,
1504198837.908571,0.246576,0.590194,0.787334,0.306180,-0.330716,-1.329367,0.202794,-0.556522,-0.805703,-0.177526,-0.005185,-0.023017,2.979204,-5.348874,-34.544281,,,,,,,
1504198837.918581,0.251804,0.589936,0.770772,0.312999,-0.419205,-1.340941,0.207039,-0.556308,-0.804771,-0.178093,0.010928,-0.028374,2.904802,-5.499509,-34.393341,,,,,,,
1504198837.928591,0.256100,0.589418,0.754346,0.280279,-0.500999,-1.329112,0.210567,-0.555878,-0.804153,-0.184231,0.021347,-0.032471,2.904802,-5.499509,-34.393341,,,,,,,
1504198837.938601,0.259581,0.588276,0.738397,0.207260,-0.544112,-1.304612,0.213528,-0.554928,-0.804028,-0.191067,0.013454,-0.040821,2.680376,-5.725522,-34.392212,,,,,,,
1504198837.948609,0.261828,0.586361,0.723336,0.115275,-0.562556,-1.289793,0.215609,-0.553333,-0.804571,-0.194537,-0.006512,-0.043909,2.680376,-5.725522,-34.392212,,,,,,,
1504198837.958619,0.264522,0.583060,0.708420,-0.030805,-0.548570,-1.285801,0.218252,-0.550581,-0.805746,-0.202672,-0.023775,-0.037104,2.229692,-5.278134,-34.096710,,,,,,,
1504198837.968629,0.267248,0.578532,0.693741,-0.141471,-0.526321,-1.309515,0.221104,-0.546796,-0.807544,-0.212239,-0.033038,-0.024808,2.229692,-5.278134,-34.096710,,,,,,,
1504198837.978639,0.270137,0.572905,0.679175,-0.240335,-0.494582,-1.331091,0.224253,-0.542076,-0.809855,-0.221308,-0.039467,-0.006124,2.230303,-5.652692,-34.318909,,,,,,,
1504198837.988648,0.271930,0.567222,0.665363,-0.288081,-0.469683,-1.347221,0.226529,-0.537291,-0.812406,-0.229505,-0.039445,0.007413,2.230303,-5.652692,-34.318909,,,,,,,
1504198837.998628,0.274998,0.560798,0.651010,-0.283767,-0.455879,-1.334429,0.229953,-0.531862,-0.815012,-0.238513,-0.030760,0.013132,2.005114,-5.578702,-34.320038,,,,,,,
1504198838.008637,0.277862,0.554773,0.637167,-0.251940,-0.441285,-1.274625,0.233161,-0.526751,-0.817416,-0.246314,-0.018736,0.004337,2.005114,-5.578702,-34.320038,,,,,,,
1504198838.018647,0.280438,0.549521,0.624172,-0.180714,-0.416393,-1.182749,0.236028,-0.522279,-0.819460,-0.252278,-0.028243,-0.000532,1.779329,-5.130155,-34.098969,,,,,,,
1504198838.028657,0.278753,0.546670,0.614345,-0.155250,-0.365612,-1.081371,0.235056,-0.519846,-0.821285,-0.256815,-0.048331,-0.005055,1.779329,-5.130155,-34.098969,,,,,,,
1504198838.038667,0.281282,0.542521,0.603458,-0.134870,-0.292353,-0.985399,0.237729,-0.516297,-0.822753,-0.260556,-0.051330,-0.008149,1.779482,-5.279859,-34.247833,,,,,,,
1504198838.048677,0.284097,0.538695,0.593482,-0.128214,-0.212567,-0.908675,0.240596,-0.513016,-0.823971,-0.259211,-0.052322,-0.006946,1.779482,-5.279859,-34.247833,,,,,,,
1504198838.058686,0.287080,0.535011,0.584313,-0.138786,-0.159269,-0.842608,0.243586,-0.509851,-0.825056,-0.255641,-0.047705,-0.002519,1.553957,-4.981168,-34.100647,,,,,,,
1504198838.068696,0.286881,0.532098,0.577498,-0.181666,-0.144088,-0.783990,0.243841,-0.507343,-0.826526,-0.247854,-0.036023,-0.002148,1.553957,-4.981168,-34.100647,,,,,,,
1504198838.078707,0.289149,0.527920,0.569868,-0.229008,-0.165058,-0.738137,0.246318,-0.503738,-0.827995,-0.241893,-0.032411,-0.008293,1.478426,-4.681806,-33.953064,,,,,,,
1504198838.088717,0.290719,0.523222,0.563020,-0.297748,-0.192247,-0.690175,0.248292,-0.499674,-0.829866,-0.240297,-0.037848,-0.017424,1.478426,-4.681806,-33.953064,,,,,,,
1504198838.098726,0.291534,0.518169,0.556832,-0.336746,-0.239921,-0.648530,0.249691,-0.495291,-0.832071,-0.238568,-0.028696,-0.025626,1.478609,-4.981061,-34.325836,,,,,,,
1504198838.108736,0.291504,0.513273,0.551169,-0.318217,-0.294469,-0.600368,0.250360,-0.491031,-0.834391,-0.232721,-0.017697,-0.029211,1.478609,-4.981061,-34.325836,,,,,,,
1504198838.118746,0.290750,0.508860,0.545873,-0.279352,-0.344916,-0.558583,0.250350,-0.487182,-0.836648,-0.223250,-0.006257,-0.033592,0.953386,-4.758862,-34.103790,,,,,,,
1504198838.128756,0.289532,0.505130,0.540768,-0.216791,-0.374234,-0.527469,0.249848,-0.483921,-0.838687,-0.206864,0.012028,-0.030758,0.953386,-4.758862,-34.103790,,,,,,,
1504198838.138764,0.288252,0.501696,0.535932,-0.203966,-0.350931,-0.494398,0.249245,-0.480914,-0.840595,-0.194420,0.024935,-0.026837,0.878054,-4.534497,-33.955688,,,,,,,
1504198838.148774,0.287400,0.498737,0.531481,-0.165205,-0.275645,-0.444296,0.248930,-0.478317,-0.842168,-0.186461,0.029357,-0.013041,0.878054,-4.534497,-33.955688,,,,,,,
1504198838.158784,0.287341,0.496145,0.527563,-0.145366,-0.161847,-0.388957,0.249231,-0.476039,-0.843369,-0.189066,-0.008977,0.011566,0.727709,-4.534726,-34.181030,,,,,,,
1504198838.168794,0.288284,0.493720,0.524074,-0.148831,-0.041438,-0.357153,0.250355,-0.473905,-0.844238,-0.193989,-0.050067,0.034377,0.727709,-4.534726,-34.181030,,,,,,,
1504198838.178804,0.290103,0.491128,0.520627,-0.165223,0.035433,-0.370126,0.252240,-0.471621,-0.844955,-0.193723,-0.061903,0.046523,0.577639,-4.236295,-33.733643,,,,,,,
1504198838.188813,0.292414,0.488123,0.516961,-0.208589,0.061400,-0.404404,0.254599,-0.468969,-0.845723,-0.190100,-0.048228,0.039235,0.577639,-4.236295,-33.733643,,,,,,,
1504198838.198823,0.294564,0.484785,0.513074,-0.220550,0.016771,-0.431031,0.256870,-0.466018,-0.846667,-0.184742,-0.021240,0.015688,0.502337,-4.161481,-33.809357,,,,,,,
1504198838.208833,0.295872,0.481200,0.509095,-0.246878,-0.082098,-0.444778,0.258463,-0.462843,-0.847923,-0.177683,0.005431,-0.014809,0.502337,-4.161481,-33.809357,,,,,,,
1504198838.218843,0.295864,0.477339,0.505185,-0.275714,-0.217195,-0.441388,0.258975,-0.459417,-0.849628,-0.176242,0.020117,-0.044140,0.952105,-4.159162,-33.958313,,,,,,,
1504198838.228853,0.294273,0.473098,0.501751,-0.331342,-0.345713,-0.403899,0.258186,-0.455646,-0.851896,-0.181190,0.026249,-0.068194,0.952105,-4.159162,-33.958313,,,,,,,
1504198838.238863,0.291402,0.468691,0.499163,-0.364296,-0.414788,-0.324846,0.256314,-0.451719,-0.854549,-0.186749,0.009458,-0.078313,0.502459,-4.161633,-33.734375,,,,,,,
1504198838.248873,0.288190,0.464298,0.497754,-0.383646,-0.367851,-0.220357,0.254129,-0.447795,-0.857262,-0.200479,-0.043278,-0.062080,0.502459,-4.161633,-33.734375,,,,,,,
1504198838.258852,0.285537,0.460215,0.497226,-0.377813,-0.258221,-0.144755,0.252367,-0.444140,-0.859680,-0.210253,-0.088391,-0.031708,0.051668,-3.714108,-33.513855,,,,,,,
1504198838.268862,0.268612,0.466041,0.503936,-0.345211,-0.138360,-0.104253,0.237091,-0.449353,-0.861319,-0.194992,-0.079791,-0.008463,0.051668,-3.714108,-33.513855,,,,,,,
1504198838.278872,0.268140,0.462733,0.503810,-0.308066,-0.025719,-0.097983,0.237077,-0.446395,-0.862859,-0.187379,-0.060288,-0.002741,0.051104,-3.713361,-33.888885,,,,,,,
1504198838.288881,0.268646,0.459786,0.503659,-0.268988,0.064524,-0.087401,0.237861,-0.443756,-0.864004,-0.179588,-0.035492,-0.004176,0.051104,-3.713361,-33.888885,,,,,,,
1504198838.298890,0.269707,0.457182,0.503608,-0.245218,0.114391,-0.067167,0.239085,-0.441422,-0.864861,-0.174403,-0.017715,-0.010505,-0.023527,-3.639447,-33.514618,,,,,,,
1504198838.308900,0.255366,0.456683,0.510729,-0.220753,0.147149,-0.029788,0.226713,-0.440974,-0.868414,-0.162138,-0.021581,-0.013605,-0.023527,-3.639447,-33.514618,,,,,,,
1504198838.318910,0.256599,0.454651,0.511476,-0.207096,0.157630,0.029992,0.228011,-0.439149,-0.868999,-0.166152,-0.026610,-0.019536,0.051104,-3.489102,-33.515564,,,,,,,
1504198838.328919,0.257647,0.453297,0.512980,-0.150850,0.175190,0.118653,0.229072,-0.437932,-0.869334,-0.171653,-0.044429,-0.016027,0.051104,-3.489102,-33.515564,,,,,,,
1504198838.338929,0.258407,0.452883,0.515200,-0.068079,0.170161,0.200995,0.229779,-0.437560,-0.869335,-0.176297,-0.078126,-0.002766,0.200197,-3.262982,-33.741882,,,,,,,
1504198838.348939,0.246006,0.464338,0.523482,0.030389,0.131722,0.264307,0.217746,-0.447831,-0.867199,-0.159259,-0.072692,0.005077,0.200197,-3.262982,-33.741882,,,,,,,
1504198838.358949,0.245434,0.466173,0.526372,0.146887,0.047605,0.303084,0.217050,-0.449471,-0.866525,-0.149881,-0.052390,0.001687,0.050753,-3.488660,-33.740570,,,,,,,
1504198838.368959,0.243659,0.469307,0.529231,0.272679,-0.082396,0.330216,0.215171,-0.452268,-0.865537,-0.135337,-0.023577,-0.008624,0.050753,-3.488660,-33.740570,,,,,,,
1504198838.378968,0.240329,0.474071,0.532163,0.442947,-0.238366,0.383089,0.211772,-0.456512,-0.864146,-0.123760,0.009567,-0.029774,0.200228,-3.188275,-33.592438,,,,,,,
1504198838.388978,0.228035,0.476712,0.538750,0.615362,-0.380413,0.444469,0.200860,-0.458860,-0.865507,-0.104714,0.022260,-0.048967,0.200228,-3.188275,-33.592438,,,,,,,
1504198838.398988,0.221876,0.485213,0.542239,0.805314,-0.470487,0.506866,0.194660,-0.466397,-0.862891,-0.094196,0.014310,-0.064111,0.051897,-3.938657,-33.737183,,,,,,,
1504198838.408998,0.215306,0.495494,0.546170,0.966121,-0.463361,0.578648,0.187952,-0.475467,-0.859422,-0.092539,-0.006253,-0.072814,0.051897,-3.938657,-33.737183,,,,,,,
1504198838.419008,0.209143,0.507154,0.550604,1.081748,-0.376995,0.637403,0.181488,-0.485691,-0.855083,-0.089188,-0.042065,-0.073583,-0.397200,-4.166135,-33.511597,,,,,,,
1504198838.429018,0.203937,0.519642,0.555419,1.145564,-0.248618,0.669310,0.175792,-0.496569,-0.850010,-0.084788,-0.078321,-0.076291,-0.397200,-4.166135,-33.511597,,,,,,,
1504198838.439028,0.199757,0.532510,0.560311,1.177296,-0.149778,0.669191,0.170955,-0.507697,-0.844404,-0.076504,-0.094796,-0.092455,-0.544371,-5.067548,-33.130219,,,,,,,
1504198838.449038,0.196343,0.545197,0.564991,1.156631,-0.088830,0.631688,0.166802,-0.518587,-0.838597,-0.063118,-0.088912,-0.124721,-0.544371,-5.067548,-33.130219,,,,,,,
1504198838.459046,0.193303,0.557252,0.569219,1.090833,-0.083960,0.568589,0.163039,-0.528856,-0.832904,-0.049620,-0.074278,-0.165371,-0.918013,-5.519544,-32.977753,,,,,,,
1504198838.469056,0.190436,0.568011,0.572725,0.965260,-0.105200,0.469141,0.159564,-0.537956,-0.827733,-0.037829,-0.054710,-0.207743,-0.918013,-5.519544,-32.977753,,,,,,,
1504198838.479078,0.187809,0.576863,0.575339,0.777897,-0.124849,0.353571,0.156494,-0.545397,-0.823439,-0.031982,-0.033216,-0.246461,-1.066099,-6.195523,-32.823090,,,,,,,
1504198838.489088,0.185696,0.583553,0.577200,0.574809,-0.099629,0.253906,0.154076,-0.550992,-0.820163,-0.032632,-0.015612,-0.271588,-1.066099,-6.195523,-32.823090,,,,,,,
1504198838.499097,0.184496,0.587752,0.578773,0.328328,-0.005895,0.193539,0.152666,-0.554492,-0.818066,-0.043840,-0.029264,-0.278217,-1.064711,-6.571118,-32.520233,,,,,,,
1504198838.509107,0.184593,0.589442,0.580450,0.074672,0.141151,0.159751,0.152573,-0.555898,-0.817129,-0.063447,-0.081447,-0.260874,-1.064711,-6.571118,-32.520233,,,,,,,
1504198838.519117,0.186166,0.588375,0.582209,-0.199171,0.289444,0.110982,0.153968,-0.555010,-0.817470,-0.074042,-0.134245,-0.239018,-1.214735,-6.870740,-33.043365,,,,,,,
1504198838.529096,0.188927,0.584662,0.583878,-0.451985,0.391755,0.050589,0.156611,-0.551917,-0.819061,-0.075632,-0.153939,-0.226167,-1.214735,-6.870740,-33.043365,,,,,,,
1504198838.539106,0.192463,0.578731,0.585146,-0.645496,0.426465,-0.028795,0.160129,-0.546962,-0.821700,-0.068500,-0.146000,-0.222749,-0.915754,-6.419538,-32.971008,,,,,,,
1504198838.549116,0.196078,0.571049,0.585973,-0.805457,0.393754,-0.097329,0.163912,-0.540515,-0.825213,-0.059542,-0.127133,-0.218977,-0.915754,-6.419538,-32.971008,,,,,,,
1504198838.559126,0.199214,0.562191,0.586311,-0.891199,0.306081,-0.160299,0.167440,-0.533041,-0.829356,-0.055608,-0.109186,-0.214437,-0.616133,-6.268201,-32.971405,,,,,,,
1504198838.569134,0.201539,0.552568,0.586314,-0.956878,0.207561,-0.198666,0.170387,-0.524875,-0.833951,-0.058677,-0.095196,-0.203296,-0.616133,-6.268201,-32.971405,,,,,,,
1504198838.579144,0.203208,0.542432,0.586233,-1.002069,0.151471,-0.212522,0.172844,-0.516220,-0.838834,-0.065651,-0.086243,-0.185764,-0.167570,-5.741025,-33.049225,,,,,,,
1504198838.589154,0.204683,0.531891,0.586172,-1.038353,0.146449,-0.218980,0.175177,-0.507164,-0.843859,-0.078039,-0.100136,-0.150556,-0.167570,-5.741025,-33.049225,,,,,,,
1504198838.599164,0.206471,0.521086,0.586257,-1.071037,0.199990,-0.211659,0.177798,-0.497822,-0.848858,-0.094088,-0.121700,-0.106403,-0.244154,-5.066510,-32.979492,,,,,,,
1504198838.609174,0.209044,0.509954,0.586419,-1.092702,0.288621,-0.218257,0.181121,-0.488137,-0.853766,-0.107909,-0.138038,-0.066552,-0.244154,-5.066510,-32.979492,,,,,,,
1504198838.619184,0.212676,0.498849,0.586481,-1.085438,0.389804,-0.229097,0.185353,-0.478415,-0.858349,-0.112859,-0.131784,-0.034321,-0.171232,-4.465421,-33.358795,,,,,,,
1504198838.629194,0.217319,0.487939,0.586395,-1.051558,0.481182,-0.244143,0.190451,-0.468806,-0.862525,-0.114905,-0.107915,-0.012567,-0.171232,-4.465421,-33.358795,,,,,,,
1504198838.639204,0.222815,0.477447,0.585970,-1.002897,0.543683,-0.274056,0.196264,-0.459514,-0.866215,-0.116338,-0.094655,0.008594,0.052340,-3.939252,-33.437164,,,,,,,
1504198838.649213,0.223915,0.473363,0.587291,-0.937581,0.556886,-0.308074,0.197632,-0.455882,-0.867821,-0.114594,-0.070058,0.021889,0.052340,-3.939252,-33.437164,,,,,,,
1504198838.659223,0.229893,0.463881,0.586045,-0.883282,0.531948,-0.325014,0.203792,-0.447422,-0.870794,-0.116405,-0.043468,0.024175,0.425829,-3.337567,-33.440735,,,,,,,
1504198838.669233,0.235454,0.455028,0.584670,-0.818614,0.481330,-0.322678,0.209547,-0.439487,-0.873465,-0.120604,-0.029156,0.019674,0.425829,-3.337567,-33.440735,,,,,,,
1504198838.679243,0.240465,0.446474,0.583340,-0.796668,0.427862,-0.316141,0.214810,-0.431788,-0.876023,-0.129147,-0.043111,0.019730,0.798464,-2.435727,-33.521576,,,,,,,
1504198838.689253,0.244421,0.438514,0.582270,-0.786371,0.381946,-0.316038,0.219098,-0.424595,-0.878473,-0.135235,-0.056912,0.023218,0.798464,-2.435727,-33.521576,,,,,,,
1504198838.699262,0.248469,0.430105,0.580922,-0.782422,0.336103,-0.325557,0.223522,-0.416967,-0.881009,-0.136852,-0.050212,0.024594,1.173082,-2.284039,-33.521790,,,,,,,
1504198838.709272,0.252092,0.421658,0.579481,-0.789111,0.291417,-0.339366,0.227584,-0.409273,-0.883573,-0.134688,-0.029432,0.020276,1.173082,-2.284039,-33.521790,,,,,,,
1504198838.719282,0.255435,0.413159,0.577891,-0.781755,0.264737,-0.359587,0.231406,-0.401505,-0.886141,-0.134818,-0.007537,0.011904,1.546724,-1.832059,-33.674225,,,,,,,
1504198838.729292,0.258473,0.404492,0.576386,-0.799724,0.283007,-0.364987,0.234978,-0.393552,-0.888764,-0.143975,0.009870,0.008576,1.546724,-1.832059,-33.674225,,,,,,,
1504198838.739300,0.261971,0.395899,0.575006,-0.795510,0.296790,-0.331914,0.238952,-0.385638,-0.891171,-0.168976,0.011248,0.013455,1.695284,-1.306226,-33.752808,,,,,,,
1504198838.749310,0.265161,0.387451,0.574277,-0.800157,0.289303,-0.267865,0.242639,-0.377830,-0.893516,-0.193033,-0.007805,0.020500,1.695284,-1.306226,-33.752808,,,,,,,
1504198838.759320,0.267847,0.379094,0.574511,-0.817813,0.273369,-0.176071,0.245865,-0.370079,-0.895875,-0.212342,-0.036964,0.020798,1.769274,-0.856046,-33.681000,,,,,,,
1504198838.769331,0.270114,0.370541,0.575830,-0.872634,0.276926,-0.088645,0.248731,-0.362120,-0.898333,-0.220639,-0.061739,0.022936,1.769274,-0.856046,-33.681000,,,,,,,
1504198838.779340,0.271995,0.361487,0.578060,-0.946688,0.260424,-0.027902,0.251291,-0.353666,-0.900985,-0.212580,-0.078234,0.025557,2.066561,0.045917,-33.987061,,,,,,,
1504198838.789350,0.273023,0.351924,0.581018,-1.009419,0.184167,0.020157,0.253118,-0.344705,-0.903941,-0.191121,-0.062247,0.025172,2.066561,0.045917,-33.987061,,,,,,,
1504198838.799329,0.272855,0.342051,0.584447,-1.043566,0.069332,0.051255,0.253870,-0.335420,-0.907217,-0.155390,-0.024657,0.008658,2.366442,0.271655,-33.687958,,,,,,,
1504198838.809339,0.271277,0.332418,0.588068,-1.003223,-0.073817,0.076127,0.253292,-0.326329,-0.910688,-0.121014,0.010732,-0.002215,2.366442,0.271655,-33.687958,,,,,,,
1504198838.819349,0.268464,0.323540,0.591694,-0.926388,-0.190625,0.099949,0.251488,-0.317925,-0.914154,-0.092232,0.035256,-0.007874,2.214067,0.946887,-34.143433,,,,,,,
1504198838.829359,0.264951,0.315763,0.595115,-0.802122,-0.254530,0.110951,0.248915,-0.310542,-0.917390,-0.073912,0.039103,-0.003966,2.214067,0.946887,-34.143433,,,,,,,
1504198838.839368,0.261380,0.309196,0.598266,-0.678431,-0.257690,0.120778,0.246159,-0.304293,-0.920224,-0.067311,0.031420,0.011410,1.988726,1.394809,-33.622345,,,,,,,
1504198838.849378,0.258129,0.304052,0.601043,-0.533166,-0.235447,0.124192,0.243563,-0.299389,-0.922520,-0.064379,0.016644,0.024113,1.988726,1.394809,-33.622345,,,,,,,
1504198838.859388,0.255129,0.299750,0.603642,-0.461598,-0.218996,0.133894,0.241117,-0.295282,-0.924484,-0.055555,0.004892,0.022583,1.912142,1.845080,-33.925934,,,,,,,
1504198838.869398,0.251997,0.296040,0.606287,-0.413933,-0.247120,0.158576,0.238492,-0.291734,-0.926290,-0.050306,-0.003767,0.006764,1.912142,1.845080,-33.925934,,,,,,,
1504198838.879408,0.248072,0.292695,0.609153,-0.384911,-0.333706,0.190802,0.235093,-0.288533,-0.928159,-0.042268,-0.008158,-0.015505,2.061953,2.145007,-33.552795,,,,,,,
1504198838.889417,0.242918,0.289556,0.612221,-0.375397,-0.464876,0.212397,0.230523,-0.285527,-0.930233,-0.029305,-0.017345,-0.034733,2.061953,2.145007,-33.552795,,,,,,,
1504198838.899427,0.236267,0.286820,0.615284,-0.311589,-0.615665,0.226650,0.224512,-0.282903,-0.932502,-0.016779,-0.017405,-0.039513,1.611513,2.367831,-33.480560,,,,,,,
1504198838.909437,0.228055,0.285221,0.618690,-0.201047,-0.756245,0.299673,0.216949,-0.281369,-0.934754,-0.013794,-0.012271,-0.033661,1.611513,2.367831,-33.480560,,,,,,,
1504198838.919447,0.218404,0.285414,0.622237,0.001293,-0.908209,0.346190,0.207906,-0.281555,-0.936751,-0.013006,-0.021515,-0.020677,1.086367,2.515170,-33.333008,,,,,,,
1504198838.929456,0.207065,0.287855,0.625732,0.217464,-1.067742,0.388474,0.197130,-0.283896,-0.938372,-0.003145,-0.020288,-0.011747,1.086367,2.515170,-33.333008,,,,,,,
1504198838.939466,0.194573,0.291764,0.629114,0.343523,-1.179605,0.391025,0.185176,-0.287642,-0.939666,0.013279,0.000182,-0.018937,0.710802,2.738498,-33.335602,,,,,,,
1504198838.949476,0.180938,0.296648,0.632072,0.455706,-1.311568,0.362632,0.172093,-0.292317,-0.940710,0.038082,0.031880,-0.018686,0.710802,2.738498,-33.335602,,,,,,,
1504198838.959486,0.165967,0.302431,0.634763,0.541121,-1.445459,0.350207,0.157709,-0.297842,-0.941498,0.048377,0.060385,-0.049744,-0.264189,2.509860,-33.711334,,,,,,,
1504198838.969495,0.149914,0.308926,0.637222,0.629956,-1.559119,0.326012,0.142283,-0.304036,-0.941975,0.057867,0.052220,-0.080867,-0.264189,2.509860,-33.711334,,,,,,,
1504198838.979505,0.132936,0.316046,0.639168,0.686009,-1.657555,0.267575,0.125980,-0.310811,-0.942086,0.062726,0.045643,-0.087043,-0.938063,2.056811,-33.709625,,,,,,,
1504198838.989515,0.115403,0.323372,0.640386,0.724201,-1.736637,0.184523,0.109179,-0.317766,-0.941863,0.052488,0.059526,-0.098970,-0.938063,2.056811,-33.709625,,,,,,,
1504198838.999525,0.096963,0.331171,0.640905,0.783320,-1.858531,0.115460,0.091550,-0.325151,-0.941220,0.031771,0.068101,-0.095264,-2.138319,2.201282,-33.638733,,,,,,,
1504198839.009535,0.077191,0.339453,0.640852,0.849593,-2.015652,0.052874,0.072714,-0.332972,-0.940129,0.008188,0.059839,-0.100017,-2.138319,2.201282,-33.638733,,,,,,,
1504198839.019544,0.056035,0.347988,0.640226,0.857217,-2.175479,-0.020481,0.052649,-0.341008,-0.938585,-0.004095,0.050877,-0.114485,-3.186354,1.371707,-33.710083,,,,,,,
1504198839.029554,0.033801,0.356163,0.639564,0.792612,-2.248474,-0.019397,0.031674,-0.348681,-0.936706,-0.005612,0.025515,-0.124497,-3.186354,1.371707,-33.710083,,,,,,,
1504198839.039564,0.012153,0.363009,0.639372,0.653634,-2.139720,-0.003819,0.011361,-0.355089,-0.934763,0.005241,0.010759,-0.131048,-4.684080,0.689227,-33.333740,,,,,,,
1504198839.049574,-0.007924,0.368831,0.638902,0.557058,-1.975831,-0.058713,-0.007391,-0.360525,-0.932720,0.028509,0.016851,-0.120533,-4.684080,0.689227,-33.333740,,,,,,,
1504198839.059583,-0.025597,0.373692,0.637861,0.467476,-1.740600,-0.117990,-0.023828,-0.365055,-0.930681,0.000848,0.025425,-0.111723,-5.807707,0.233874,-33.183136,,,,,,,
1504198839.069563,-0.040383,0.378265,0.636428,0.451806,-1.455915,-0.156945,-0.037518,-0.369309,-0.928549,-0.029773,0.042328,-0.100046,-5.807707,0.233874,-33.183136,,,,,,,
1504198839.079571,-0.053586,0.381850,0.632946,0.254324,-1.510473,-0.438986,-0.049702,-0.372638,-0.926645,-0.052028,0.061786,-0.083960,-7.081953,-0.071866,-33.184021,,,,,,,
1504198839.089581,-0.071405,0.384181,0.627590,0.265512,-2.139225,-0.480554,-0.066144,-0.374800,-0.924743,-0.118015,0.154051,-0.102967,-7.081953,-0.071866,-33.184021,,,,,,,
1504198839.099591,-0.095726,0.391157,0.626383,0.822693,-2.519334,-0.066900,-0.088360,-0.381258,-0.920236,-0.186771,0.175966,-0.214850,-7.904905,-0.526776,-32.582672,,,,,,,
1504198839.109601,-0.121140,0.401242,0.628334,1.070097,-2.438416,0.088159,-0.111246,-0.390562,-0.913830,-0.058599,-0.055574,-0.198871,-7.904905,-0.526776,-32.582672,,,,,,,
1504198839.119611,-0.145663,0.412900,0.630794,1.210015,-2.301016,0.064676,-0.132951,-0.401267,-0.906261,-0.068115,-0.023370,-0.035618,-9.179182,-0.682950,-32.359680,,,,,,,
1504198839.129621,-0.166453,0.424720,0.634095,1.202999,-1.797008,0.139561,-0.150965,-0.412065,-0.898561,-0.158789,0.020739,-0.014510,-9.179182,-0.682950,-32.359680,,,,,,,
1504198839.139631,-0.181117,0.435692,0.638770,1.129158,-1.084700,0.255591,-0.163300,-0.422038,-0.891750,-0.167235,0.034968,-0.005315,-10.901915,-1.366452,-31.983856,,,,,,,
1504198839.149641,-0.188631,0.445269,0.644292,1.003584,-0.329300,0.330894,-0.169230,-0.430701,-0.886486,-0.157567,0.058127,0.032223,-10.901915,-1.366452,-31.983856,,,,,,,
1504198839.159650,-0.189211,0.454102,0.650061,0.941705,0.346786,0.343471,-0.169023,-0.438655,-0.882617,-0.177169,0.045543,0.026782,-11.499983,-2.044461,-31.830261,,,,,,,
1504198839.169660,-0.184881,0.462044,0.655547,0.860811,0.763050,0.329788,-0.164554,-0.445779,-0.879888,-0.195462,0.040338,0.000860,-11.499983,-2.044461,-31.830261,,,,,,,
1504198839.179670,-0.177895,0.469896,0.660736,0.849762,0.967761,0.305925,-0.157779,-0.452794,-0.877544,-0.197446,0.044148,-0.044682,-11.499617,-2.194455,-31.829132,,,,,,,
1504198839.189680,-0.170348,0.477048,0.665544,0.751554,0.956856,0.298302,-0.150599,-0.459158,-0.875496,-0.190359,0.062064,-0.088829,-11.499617,-2.194455,-31.829132,,,,,,,
1504198839.199690,-0.165036,0.482791,0.670305,0.593251,0.659760,0.329507,-0.145510,-0.464253,-0.873668,-0.193739,0.100087,-0.120167,-10.673216,-3.014859,-32.270935,,,,,,,
1504198839.209699,-0.163679,0.487075,0.674988,0.450153,0.250670,0.341721,-0.143999,-0.468043,-0.871894,-0.197676,0.075038,-0.167427,-10.673216,-3.014859,-32.270935,,,,,,,
1504198839.219709,-0.166461,0.488837,0.679314,0.159615,-0.187036,0.348394,-0.146287,-0.469599,-0.870676,-0.187590,0.030848,-0.218496,-10.522764,-3.239026,-32.343872,,,,,,,
1504198839.229719,-0.173743,0.487960,0.683024,-0.090697,-0.680459,0.329617,-0.152695,-0.468825,-0.869993,-0.181320,0.044646,-0.211993,-10.522764,-3.239026,-32.343872,,,,,,,
1504198839.239729,-0.186006,0.485370,0.686584,-0.217672,-1.181367,0.384718,-0.163576,-0.466535,-0.869245,-0.179213,0.043424,-0.191408,-10.597960,-3.164365,-32.344635,,,,,,,
1504198839.249738,-0.203916,0.481896,0.692906,-0.228905,-1.588663,0.701368,-0.179444,-0.463460,-0.867759,-0.167999,-0.013392,-0.141565,-10.597960,-3.164365,-32.344635,,,,,,,
1504198839.259748,-0.226037,0.478325,0.702322,-0.144409,-1.821895,0.928215,-0.198963,-0.460293,-0.865184,-0.133449,-0.074436,-0.068486,-10.823072,-3.165235,-32.420197,,,,,,,
1504198839.269758,-0.248720,0.475563,0.712096,-0.036203,-1.790777,0.888854,-0.218848,-0.457839,-0.861678,-0.131188,-0.060502,0.016479,-10.823072,-3.165235,-32.420197,,,,,,,
1504198839.279768,-0.268589,0.473900,0.722007,0.095827,-1.408275,0.914026,-0.236126,-0.456360,-0.857893,-0.156269,0.010636,0.105695,-11.948744,-2.720883,-32.126312,,,,,,,
1504198839.289777,-0.282994,0.472341,0.733505,0.117428,-0.750064,1.060204,-0.248658,-0.454972,-0.855085,-0.170654,0.038697,0.200010,-11.948744,-2.720883,-32.126312,,,,,,,
1504198839.299787,-0.291959,0.468827,0.744266,-0.118643,-0.302613,0.976816,-0.256772,-0.451840,-0.854347,-0.136706,0.049496,0.294716,-13.223951,-2.502057,-31.906158,,,,,,,
1504198839.309797,-0.296281,0.465386,0.753284,-0.078640,0.072301,0.829990,-0.260915,-0.448768,-0.854711,-0.122798,0.090629,0.270467,-13.223951,-2.502057,-31.906158,,,,,,,
1504198839.319807,-0.296996,0.462754,0.761282,-0.039791,0.334219,0.733529,-0.261870,-0.446415,-0.855651,-0.096498,0.103077,0.210295,-13.224516,-2.277066,-31.907837,,,,,,,
1504198839.329816,-0.295993,0.459928,0.768002,-0.117699,0.401034,0.630806,-0.261378,-0.443884,-0.857116,-0.056142,0.044195,0.235992,-13.224516,-2.277066,-31.907837,,,,,,,
1504198839.339826,-0.295217,0.456648,0.773451,-0.185441,0.280206,0.542307,-0.261136,-0.440942,-0.858707,-0.042133,0.034692,0.205708,-13.150801,-1.901273,-32.135468,,,,,,,
1504198839.349806,-0.296287,0.453352,0.778156,-0.191457,0.027764,0.488304,-0.262477,-0.437981,-0.859813,-0.032262,0.024682,0.180308,-13.150801,-1.901273,-32.135468,,,,,,,
1504198839.359815,-0.300333,0.449850,0.782230,-0.246237,-0.314858,0.440780,-0.266406,-0.434830,-0.860204,-0.008618,0.018586,0.165059,-13.676130,-1.678937,-31.988434,,,,,,,
1504198839.369825,-0.307744,0.445333,0.785549,-0.381386,-0.687743,0.414519,-0.273366,-0.430759,-0.860069,0.011098,0.021549,0.148093,-13.676130,-1.678937,-31.988434,,,,,,,
1504198839.379835,-0.318380,0.439107,0.788040,-0.569846,-1.047416,0.402018,-0.283332,-0.425131,-0.859643,0.028785,0.025153,0.138269,-13.301298,-1.751798,-32.211945,,,,,,,
1504198839.389845,-0.332206,0.431615,0.789990,-0.668494,-1.376937,0.400293,-0.296221,-0.418338,-0.858631,0.051378,0.030460,0.148181,-13.301298,-1.751798,-32.211945,,,,,,,
1504198839.399854,-0.349399,0.425102,0.792061,-0.495100,-1.710828,0.396913,-0.311865,-0.412414,-0.855953,0.043325,0.174362,0.183437,-13.677977,-1.078473,-32.217957,,,,,,,
1504198839.409864,-0.369822,0.421304,0.794926,-0.178168,-1.993654,0.361669,-0.329843,-0.408951,-0.850860,0.022882,0.173477,0.237945,-13.677977,-1.078473,-32.217957,,,,,,,
1504198839.419873,-0.393086,0.421292,0.798403,0.218334,-2.234453,0.269917,-0.349548,-0.408940,-0.842962,0.011093,0.111546,0.308340,-14.802870,-0.859433,-31.772430,,,,,,,
1504198839.429883,-0.418079,0.425000,0.802743,0.582755,-2.336484,0.201347,-0.369887,-0.412321,-0.832572,-0.000795,0.064726,0.346045,-14.802870,-0.859433,-31.772430,,,,,,,
1504198839.439893,-0.443468,0.431599,0.808058,0.861810,-2.297168,0.147324,-0.389728,-0.418323,-0.820438,-0.007062,-0.022686,0.373202,-16.227171,-0.642484,-30.952606,,,,,,,
1504198839.449903,-0.467519,0.439647,0.813628,0.957488,-2.113540,0.083121,-0.407815,-0.425620,-0.807796,0.005013,-0.067361,0.390361,-16.227171,-0.642484,-30.952606,,,,,,,
1504198839.459913,-0.489019,0.447779,0.819084,0.940524,-1.845914,0.062339,-0.423446,-0.432965,-0.795760,-0.002091,-0.089664,0.400970,-17.349699,-1.398282,-30.574738,,,,,,,
1504198839.469923,-0.508294,0.455406,0.824702,0.898353,-1.634602,0.085377,-0.437086,-0.439827,-0.784543,-0.001329,-0.091652,0.394269,-17.349699,-1.398282,-30.574738,,,,,,,
1504198839.479895,-0.526277,0.462734,0.830139,0.874732,-1.543791,0.046749,-0.449491,-0.446396,-0.773749,0.020109,-0.054474,0.350211,-18.770887,-2.157239,-29.297638,,,,,,,
1504198839.489905,-0.544005,0.470559,0.835082,0.912440,-1.552535,-0.040697,-0.461315,-0.453384,-0.762647,0.033993,0.043198,0.283003,-18.770887,-2.157239,-29.297638,,,,,,,
1504198839.499915,-0.561863,0.479273,0.839972,0.981997,-1.562639,-0.098199,-0.472737,-0.461134,-0.750916,0.033986,0.138808,0.226975,-19.444914,-2.460568,-29.147034,,,,,,,
1504198839.509925,-0.580352,0.488710,0.845341,1.077656,-1.615629,-0.109681,-0.484132,-0.469488,-0.738375,0.036637,0.149724,0.216112,-19.444914,-2.460568,-29.147034,,,,,,,
1504198839.519935,-0.600118,0.498647,0.851482,1.130231,-1.708775,-0.104088,-0.495972,-0.478238,-0.724776,0.043686,0.048886,0.216155,-20.491850,-3.142087,-28.244507,,,,,,,
1504198839.529943,-0.620758,0.508274,0.857420,1.060346,-1.795545,-0.136079,-0.508123,-0.486670,-0.710608,0.055883,-0.076730,0.198950,-20.491850,-3.142087,-28.244507,,,,,,,
1504198839.539953,-0.641337,0.516867,0.861917,0.871451,-1.849321,-0.213164,-0.520116,-0.494159,-0.696625,0.069890,-0.134152,0.188064,-21.314283,-3.672437,-27.417633,,,,,,,
1504198839.549963,-0.661311,0.524666,0.863854,0.642371,-1.909079,-0.371430,-0.531543,-0.500924,-0.683035,0.081699,-0.114051,0.168707,-21.314283,-3.672437,-27.417633,,,,,,,
1504198839.559973,-0.679945,0.531646,0.862506,0.425567,-1.928395,-0.573511,-0.541966,-0.506952,-0.670277,0.093495,-0.054998,0.135747,-22.285780,-4.578473,-26.588226,,,,,,,
1504198839.569983,-0.696928,0.538548,0.858798,0.298763,-1.863267,-0.715810,-0.551012,-0.512890,-0.658278,0.097398,0.009487,0.107436,-22.285780,-4.578473,-26.588226,,,,,,,
1504198839.579993,-0.711688,0.545316,0.853213,0.174537,-1.724664,-0.829414,-0.558388,-0.518688,-0.647430,0.110131,0.038051,0.100769,-23.108137,-5.183682,-25.835754,,,,,,,
1504198839.590003,-0.723959,0.551817,0.845780,0.033230,-1.577411,-0.927052,-0.564044,-0.524235,-0.637990,0.115238,0.053105,0.101308,-23.108137,-5.183682,-25.835754,,,,,,,
1504198839.600013,-0.733965,0.557523,0.836408,-0.154473,-1.470311,-0.985206,-0.568387,-0.529086,-0.630083,0.095487,0.046084,0.106661,-23.780867,-5.413953,-24.710693,,,,,,,
1504198839.610022,-0.742326,0.561866,0.825093,-0.380271,-1.433266,-1.004876,-0.572077,-0.532766,-0.623609,0.076197,0.004125,0.114271,-23.780867,-5.413953,-24.710693,,,,,,,
1504198839.620032,-0.750329,0.565324,0.812162,-0.509820,-1.519528,-1.052981,-0.575789,-0.535690,-0.617660,0.070143,-0.021073,0.122191,-24.752928,-6.094983,-23.883026,,,,,,,
1504198839.630011,-0.759045,0.569168,0.798247,-0.521078,-1.648281,-1.141368,-0.579729,-0.538931,-0.611120,0.059527,-0.067713,0.134923,-24.752928,-6.094983,-23.883026,,,,,,,
1504198839.640021,-0.768164,0.574331,0.783972,-0.426901,-1.686230,-1.259620,-0.583337,-0.543274,-0.603798,0.040093,-0.117096,0.144356,-24.902510,-5.946713,-23.359497,,,,,,,
1504198839.650031,-0.776425,0.581421,0.769660,-0.295090,-1.558248,-1.384503,-0.585591,-0.549212,-0.596196,0.039082,-0.088254,0.161259,-24.902510,-5.946713,-23.359497,,,,,,,
1504198839.660041,-0.781932,0.590197,0.755317,-0.195103,-1.260596,-1.488393,-0.585446,-0.556525,-0.589519,0.038342,-0.036920,0.191219,-25.723555,-6.852658,-22.229767,,,,,,,
1504198839.670050,-0.783767,0.600074,0.740920,-0.123607,-0.900942,-1.556149,-0.582618,-0.564704,-0.584522,0.018486,-0.021340,0.238559,-25.723555,-6.852658,-22.229767,,,,,,,
1504198839.680059,-0.782438,0.610629,0.726445,-0.090334,-0.632645,-1.593924,-0.577606,-0.573383,-0.581037,0.016495,-0.014111,0.259305,-25.871855,-7.304090,-21.851746,,,,,,,
1504198839.690069,-0.779455,0.621245,0.711781,-0.081029,-0.535753,-1.593011,-0.571560,-0.582048,-0.578394,0.012951,-0.052428,0.252558,-25.871855,-7.304090,-21.851746,,,,,,,
1504198839.700079,-0.777101,0.632601,0.697710,-0.010099,-0.602419,-1.588498,-0.565525,-0.591244,-0.574988,0.010380,-0.098300,0.216468,-25.943922,-8.205319,-21.395203,,,,,,,
1504198839.710089,-0.775857,0.644499,0.683362,0.060504,-0.774459,-1.687341,-0.559843,-0.600798,-0.570629,0.021497,-0.135362,0.176449,-25.943922,-8.205319,-21.395203,,,,,,,
1504198839.720098,-0.775106,0.658017,0.667812,0.108599,-0.884411,-1.880264,-0.553680,-0.611549,-0.565196,0.023498,-0.129250,0.142833,-25.716169,-9.030210,-20.938446,,,,,,,
1504198839.730108,-0.773000,0.673370,0.650739,0.175284,-0.809094,-2.080953,-0.545867,-0.623624,-0.559573,0.013457,-0.062747,0.131275,-25.716169,-9.030210,-20.938446,,,,,,,
1504198839.740119,-0.767049,0.690135,0.631674,0.166785,-0.525372,-2.275735,-0.535195,-0.636641,-0.555206,0.014611,0.033263,0.155502,-25.788237,-9.931455,-20.481812,,,,,,,
1504198839.750129,-0.755894,0.707857,0.610218,0.135234,-0.174352,-2.447193,-0.521147,-0.650207,-0.552844,0.015013,0.112472,0.199908,-25.788237,-9.931455,-20.481812,,,,,,,
1504198839.760138,-0.735423,0.720938,0.585194,-0.487455,0.570036,-2.191273,-0.503972,-0.660090,-0.557040,-0.015498,0.120966,0.235660,-25.410795,-10.680509,-20.100250,,,,,,,
1504198839.770148,-0.710773,0.727266,0.559114,-0.912615,0.769169,-1.768602,-0.487354,-0.664830,-0.566116,-0.235943,0.006734,0.108017,-24.732817,-11.952191,-20.239044,,,,,,,
1504198839.780158,-0.691249,0.726755,0.537836,-1.121811,0.439754,-0.996652,-0.476426,-0.664448,-0.575784,-0.559585,-0.141826,-0.287207,-24.732817,-11.952191,-20.239044,,,,,,,
1504198839.790168,-0.678936,0.720097,0.519370,-1.475523,-0.147082,-0.541516,-0.472068,-0.659458,-0.585037,-0.744806,-0.297360,-0.353089,-24.732817,-11.952191,-20.239044,,,,,,,
1504198839.800177,-0.673704,0.710053,0.502069,-1.615681,-0.757758,-0.372033,-0.473109,-0.651874,-0.592645,-0.799505,-0.270092,-0.307562,-24.207975,-12.024381,-20.462158,,,,,,,
1504198839.810187,-0.673622,0.700180,0.484398,-1.600949,-1.250076,-0.477879,-0.477052,-0.644355,-0.597685,-0.426757,-0.093727,-0.348192,-24.207975,-12.024381,-20.462158,,,,,,,
1504198839.820197,-0.677025,0.693154,0.465991,-1.337984,-1.610024,-0.726561,-0.481908,-0.638967,-0.599572,-0.115535,-0.043147,-0.198493,-24.358610,-11.725202,-20.389801,,,,,,,
1504198839.830207,-0.682793,0.690846,0.448489,-0.919273,-1.696347,-0.959444,-0.486287,-0.637189,-0.597925,0.063558,-0.066149,0.008997,-24.358610,-11.725202,-20.389801,,,,,,,
1504198839.840215,-0.689053,0.692925,0.433075,-0.486687,-1.567669,-1.062460,-0.489177,-0.638791,-0.593845,0.158702,-0.097095,0.259006,-24.584028,-11.426663,-20.167603,,,,,,,
1504198839.850225,-0.695174,0.698010,0.420873,-0.114601,-1.333108,-1.059026,-0.490716,-0.642695,-0.588338,0.138788,-0.103048,0.445210,-24.584028,-11.426663,-20.167603,,,,,,,
1504198839.860235,-0.700348,0.706488,0.410750,0.243887,-1.130294,-1.161233,-0.490224,-0.649166,-0.581604,-0.074610,-0.178043,0.487976,-24.957823,-11.504697,-19.492981,,,,,,,
1504198839.870245,-0.705743,0.718311,0.402714,0.584293,-1.039243,-1.239792,-0.488342,-0.658114,-0.573069,-0.055832,-0.006681,0.479746,-24.957823,-11.504697,-19.492981,,,,,,,
1504198839.880255,-0.710763,0.731268,0.396826,0.714480,-0.829450,-1.121455,-0.485609,-0.667814,-0.564100,-0.010057,0.150648,0.457715,-25.104353,-12.481717,-18.810974,,,,,,,
1504198839.890265,-0.715753,0.742391,0.394068,0.691980,-0.648434,-0.812266,-0.483514,-0.676051,-0.556030,-0.184394,0.072398,0.403167,-25.104353,-12.481717,-18.810974,,,,,,,
1504198839.900275,-0.720433,0.751697,0.391902,0.561611,-0.613361,-0.715420,-0.481939,-0.682880,-0.549009,-0.419139,-0.097089,0.271848,-25.102049,-13.082761,-18.281494,,,,,,,
1504198839.910285,-0.724747,0.759915,0.389003,0.449308,-0.633771,-0.693163,-0.480565,-0.688860,-0.542705,-0.375071,-0.147779,0.079372,-25.102049,-13.082761,-18.281494,,,,,,,
1504198839.920264,-0.728968,0.767011,0.385537,0.337810,-0.672328,-0.647390,-0.479585,-0.693986,-0.537012,-0.126876,-0.130263,-0.025198,-24.950315,-13.458142,-17.753326,,,,,,,
1504198839.930274,-0.733855,0.773563,0.382081,0.325307,-0.746852,-0.613124,-0.479147,-0.698689,-0.531274,-0.076501,-0.107525,-0.047782,-24.948744,-13.908734,-17.449890,,,,,,,
1504198839.940284,-0.738352,0.779838,0.379058,0.324010,-0.619008,-0.575992,-0.478571,-0.703164,-0.525861,-0.107534,-0.073905,-0.005969,-24.948744,-13.908734,-17.449890,,,,,,,
1504198839.950293,-0.740824,0.786693,0.376533,0.414846,-0.349069,-0.600861,-0.476605,-0.708022,-0.521107,-0.121280,-0.005586,0.119938,-24.948744,-13.908734,-17.449890,,,,,,,
1504198839.960303,-0.740810,0.794887,0.375177,0.587367,-0.008400,-0.632118,-0.472667,-0.713784,-0.516815,-0.126653,0.041238,0.249496,-24.870314,-14.735196,-16.543518,,,,,,,
1504198839.970313,-0.738993,0.804743,0.374374,0.720398,0.152582,-0.734641,-0.466966,-0.720653,-0.512448,-0.147124,0.037303,0.335827,-24.870314,-14.735196,-16.543518,,,,,,,
1504198839.980323,-0.736925,0.816416,0.373412,0.852076,0.127124,-0.864591,-0.460220,-0.728696,-0.507148,-0.154114,0.076734,0.322181,-24.644224,-15.034635,-16.315704,,,,,,,
1504198839.990332,-0.735712,0.829811,0.372782,1.001351,0.062047,-0.949610,-0.453013,-0.737804,-0.500425,-0.146368,0.175548,0.192716,-24.644224,-15.034635,-16.315704,,,,,,,
1504198840.000342,-0.735454,0.844549,0.372723,1.111111,0.013244,-1.000569,-0.445540,-0.747671,-0.492424,-0.119173,0.169913,0.101418,-24.493666,-15.258954,-16.313629,,,,,,,
1504198840.010352,-0.735406,0.860221,0.372569,1.175243,-0.023429,-1.082584,-0.437600,-0.757987,-0.483697,-0.090903,0.127966,0.047677,-24.493666,-15.258954,-16.313629,,,,,,,
1504198840.020362,-0.734456,0.876601,0.372447,1.214131,0.153168,-1.109513,-0.428762,-0.768569,-0.474832,-0.088572,0.094069,0.023355,-23.965956,-15.932950,-15.632263,,,,,,,
1504198840.030372,-0.730605,0.893585,0.371985,1.249446,0.392705,-1.174985,-0.418158,-0.779323,-0.466690,-0.140421,0.042278,0.055664,-23.965956,-15.932950,-15.632263,,,,,,,
1504198840.040380,-0.726084,0.911239,0.372553,1.318510,0.601032,-1.212590,-0.406845,-0.790263,-0.458215,-0.152390,0.005244,0.134958,-23.813505,-16.683025,-15.251251,,,,,,,
1504198840.050390,-0.720440,0.929846,0.373041,1.454719,0.561540,-1.203745,-0.394482,-0.801528,-0.449374,-0.143329,0.009826,0.127414,-23.135725,-17.879696,-15.390594,,,,,,,
1504198840.060400,-0.718464,0.948802,0.375176,1.514058,0.288183,-1.131644,-0.383522,-0.812718,-0.438635,-0.136406,0.018605,0.092611,-23.135725,-17.879696,-15.390594,,,,,,,
1504198840.070410,-0.722614,0.967084,0.379182,1.526350,-0.223550,-0.993025,-0.375449,-0.823234,-0.425822,-0.113534,-0.002389,-0.033636,-22.683058,-18.628719,-14.858856,,,,,,,
1504198840.080420,-0.734082,0.983763,0.385180,1.436569,-0.797358,-0.810710,-0.371056,-0.832588,-0.411236,-0.076484,-0.059792,-0.135685,-22.683058,-18.628719,-14.858856,,,,,,,
1504198840.090430,-0.752883,0.998052,0.392312,1.264026,-1.452526,-0.636935,-0.370549,-0.840417,-0.395465,-0.027141,-0.123496,-0.203290,-22.454634,-19.454510,-13.952087,,,,,,,
1504198840.100440,-0.777533,1.009214,0.399419,1.003712,-2.003618,-0.453888,-0.373579,-0.846414,-0.379503,0.027342,-0.144751,-0.254088,-22.454634,-19.454510,-13.952087,,,,,,,
1504198840.110450,-0.806886,1.017085,0.406062,0.751495,-2.469540,-0.260304,-0.379734,-0.850579,-0.363756,0.068943,-0.150947,-0.274947,-22.826765,-19.833736,-12.675201,,,,,,,
1504198840.120459,-0.839345,1.022618,0.411848,0.549981,-2.812137,-0.194938,-0.387830,-0.853475,-0.348091,0.095243,-0.141550,-0.260094,-22.826765,-19.833736,-12.675201,,,,,,,
1504198840.130469,-0.870619,1.026881,0.414839,0.341633,-2.871124,-0.230419,-0.395739,-0.855689,-0.333447,0.081683,-0.141503,-0.195514,-22.973570,-20.212399,-11.172729,,,,,,,
1504198840.140479,-0.898768,1.030169,0.414669,0.166267,-2.808902,-0.267124,-0.402764,-0.857386,-0.320423,-0.002708,-0.102773,-0.084759,-22.973570,-20.212399,-11.172729,,,,,,,
1504198840.150489,-0.924948,1.032907,0.412533,0.037663,-2.780081,-0.320767,-0.409137,-0.858792,-0.308356,-0.016903,-0.002338,0.005469,-23.345625,-20.666485,-9.970215,,,,,,,
1504198840.160498,-0.949058,1.035844,0.408261,-0.002639,-2.787146,-0.380599,-0.414400,-0.860293,-0.296933,-0.000120,0.088778,0.069119,-23.345625,-20.666485,-9.970215,,,,,,,
1504198840.170508,-0.974132,1.039536,0.404560,0.088963,-2.828356,-0.415592,-0.419084,-0.862169,-0.284663,-0.030791,0.101015,0.137172,-23.343596,-20.669170,-8.620178,,,,,,,
1504198840.180517,-1.001797,1.044538,0.404497,0.346809,-2.740967,-0.418502,-0.423159,-0.864693,-0.270635,-0.062666,0.084938,0.179250,-23.343596,-20.669170,-8.620178,,,,,,,
1504198840.190527,-1.030683,1.051014,0.409093,0.593111,-2.370020,-0.433673,-0.425987,-0.867927,-0.255415,-0.039848,0.054893,0.202833,-23.340544,-20.897457,-6.968475,,,,,,,
1504198840.200537,-1.057344,1.058529,0.415921,0.658587,-1.959173,-0.496193,-0.426951,-0.871635,-0.240758,-0.000066,0.018257,0.218083,-23.340544,-20.897457,-6.968475,,,,,,,
1504198840.210546,-1.077333,1.066293,0.421108,0.573655,-1.426648,-0.583739,-0.425706,-0.875414,-0.228964,-0.023559,-0.013563,0.205053,-23.788099,-21.201733,-5.842316,,,,,,,
1504198840.220526,-1.090744,1.074527,0.422499,0.378074,-1.161677,-0.735049,-0.422330,-0.879365,-0.219898,-0.089038,0.027451,0.172794,-23.788099,-21.201733,-5.842316,,,,,,,
1504198840.230536,-1.098371,1.083448,0.418684,0.221641,-1.095191,-0.924367,-0.416992,-0.883578,-0.213092,-0.127060,0.058123,0.157824,-23.186598,-21.350521,-5.089691,,,,,,,
1504198840.240546,-1.103177,1.093264,0.411673,0.142257,-1.095469,-1.052592,-0.410249,-0.888132,-0.207165,-0.180388,0.095361,0.120862,-23.186598,-21.350521,-5.089691,,,,,,,
1504198840.250556,-1.105230,1.104030,0.402498,0.104410,-0.968223,-1.175634,-0.402106,-0.893028,-0.202018,-0.202966,0.119255,0.125175,-23.034483,-21.875896,-4.560394,,,,,,,
1504198840.260566,-1.101623,1.115310,0.390387,-0.011831,-0.617654,-1.267182,-0.392364,-0.898047,-0.198900,-0.177414,0.069022,0.097673,-23.034483,-21.875896,-4.560394,,,,,,,
1504198840.270575,-1.089453,1.126203,0.375066,-0.125379,-0.009323,-1.271654,-0.381221,-0.902786,-0.199119,-0.134938,0.066497,0.106315,-22.432158,-22.623806,-4.253235,,,,,,,
1504198840.280585,-1.067183,1.135725,0.354691,-0.380730,0.499973,-1.240973,-0.369147,-0.906840,-0.203401,-0.104150,0.018626,0.178651,-22.432158,-22.623806,-4.253235,,,,,,,
1504198840.290595,-1.037840,1.143240,0.328287,-0.619873,0.510419,-1.194440,-0.357141,-0.909982,-0.210675,-0.098426,-0.071113,0.248075,-21.980925,-23.296185,-4.547119,,,,,,,
1504198840.300605,-1.007764,1.148855,0.298819,-0.782057,0.313435,-1.080161,-0.346317,-0.912296,-0.218589,-0.124646,-0.092038,0.255332,-21.980925,-23.296185,-4.547119,,,,,,,
1504198840.310614,-0.977580,1.152300,0.269257,-0.835265,0.310488,-0.898790,-0.336954,-0.913701,-0.227183,-0.123312,-0.068171,0.147303,-21.531034,-23.518276,-4.994293,,,,,,,
1504198840.320624,-0.949624,1.153694,0.241853,-0.814044,0.291982,-0.690577,-0.329436,-0.914267,-0.235771,-0.024949,-0.129099,0.105293,-21.531034,-23.518276,-4.994293,,,,,,,
1504198840.330634,-0.927474,1.153353,0.221769,-0.617287,0.417892,-0.362766,-0.324383,-0.914129,-0.243197,-0.035801,-0.281077,0.028979,-21.080885,-23.890209,-5.515381,,,,,,,
1504198840.340644,-0.911965,1.151663,0.211619,-0.374412,0.703270,-0.041560,-0.321794,-0.913442,-0.249144,-0.006621,-0.327220,-0.086977,-21.080885,-23.890209,-5.515381,,,,,,,
1504198840.350654,-0.898786,1.149434,0.207046,-0.249549,0.939705,0.117282,-0.320075,-0.912533,-0.254629,0.053580,-0.392674,-0.136881,-20.856306,-24.038143,-6.038696,,,,,,,
1504198840.360662,-0.888139,1.145860,0.208055,-0.182315,1.230867,0.366658,-0.319874,-0.911065,-0.260079,0.078617,-0.425696,-0.112724,-20.856306,-24.038143,-6.038696,,,,,,,
1504198840.370672,-0.878115,1.140740,0.211545,-0.227195,1.320583,0.524397,-0.320837,-0.908942,-0.266248,0.076345,-0.345193,-0.086612,-20.782164,-23.961910,-6.489105,,,,,,,
1504198840.380682,-0.871177,1.133646,0.217015,-0.305694,1.122785,0.758371,-0.323907,-0.905962,-0.272613,0.142724,-0.201094,-0.021638,-20.782164,-23.961910,-6.489105,,,,,,,
1504198840.390692,-0.869189,1.123345,0.224248,-0.469103,0.758313,1.064008,-0.330475,-0.901553,-0.279265,0.179092,-0.132184,0.020826,-21.383635,-23.738415,-7.092255,,,,,,,
1504198840.400702,-0.872205,1.109673,0.233612,-0.594602,0.478753,1.391976,-0.340723,-0.895553,-0.286168,0.183954,-0.116257,0.056737,-21.383635,-23.738415,-7.092255,,,,,,,
1504198840.410712,-0.878904,1.093253,0.245315,-0.645051,0.338235,1.655784,-0.353910,-0.888127,-0.293222,0.249250,-0.140453,0.106958,-21.911222,-23.064571,-7.698639,,,,,,,
1504198840.420722,-0.890742,1.077033,0.261465,-0.414178,0.215759,1.804771,-0.368509,-0.880556,-0.298032,0.267572,-0.190825,0.151868,-21.911222,-23.064571,-7.698639,,,,,,,
1504198840.430732,-0.903020,1.061094,0.280530,-0.217312,0.551932,1.805586,-0.383113,-0.872890,-0.302139,0.230297,-0.118596,0.123596,-22.513746,-22.241665,-8.006317,,,,,,,
1504198840.440741,-0.912400,1.047450,0.302008,0.062591,1.062295,1.694162,-0.395314,-0.866152,-0.305790,0.103352,-0.195723,0.129582,-22.513746,-22.241665,-8.006317,,,,,,,
1504198840.450751,-0.915896,1.036413,0.324436,0.265368,1.759843,1.516094,-0.403939,-0.860583,-0.310211,0.012963,-0.133039,0.183151,-23.265577,-21.644588,-8.237671,,,,,,,
1504198840.460761,-0.910549,1.027161,0.344435,0.218299,2.418982,1.313111,-0.408546,-0.855834,-0.317236,-0.062203,-0.023027,0.223089,-23.265577,-21.644588,-8.237671,,,,,,,
1504198840.470771,-0.897807,1.018540,0.361842,0.131489,2.829012,1.191622,-0.410224,-0.851343,-0.327003,-0.067879,0.052744,0.269218,-23.794188,-20.745144,-9.145721,,,,,,,
1504198840.480775,-0.880237,1.009774,0.375017,-0.049335,2.835933,1.090961,-0.410154,-0.846712,-0.338900,-0.044955,0.031923,0.348926,-23.794188,-20.745144,-9.145721,,,,,,,
1504198840.490785,-0.862561,1.000258,0.383643,-0.339701,2.363155,1.006967,-0.410200,-0.841610,-0.351322,-0.026827,0.017743,0.321675,-23.573072,-20.141003,-10.724731,,,,,,,
1504198840.500795,-0.847669,0.989964,0.387971,-0.558242,1.652179,0.901102,-0.411397,-0.836006,-0.363106,-0.046702,-0.002785,0.225487,-23.573072,-20.141003,-10.724731,,,,,,,
1504198840.510805,-0.836200,0.978742,0.387238,-0.840921,0.914046,0.775960,-0.414142,-0.829796,-0.374065,-0.088162,-0.046669,0.129696,-23.800444,-19.914608,-11.927002,,,,,,,
1504198840.520784,-0.827256,0.967093,0.381964,-1.056083,0.328833,0.621846,-0.417867,-0.823239,-0.384272,-0.062174,0.030239,0.002558,-23.800444,-19.914608,-11.927002,,,,,,,
1504198840.530794,-0.819232,0.955331,0.373606,-1.171778,0.069892,0.514294,-0.421816,-0.816505,-0.394197,-0.077329,0.039772,-0.011184,-24.176756,-19.615551,-12.305176,,,,,,,
1504198840.540804,-0.812416,0.943481,0.364283,-1.215988,-0.139637,0.485767,-0.426114,-0.809606,-0.403689,-0.075779,0.004553,0.044756,-24.176756,-19.615551,-12.305176,,,,,,,
1504198840.550813,-0.808641,0.931411,0.354357,-1.272347,-0.530225,0.463943,-0.431624,-0.802463,-0.412012,-0.029558,-0.062283,0.097269,-24.179060,-19.014507,-12.834717,,,,,,,
1504198840.560823,-0.810291,0.918860,0.344369,-1.319991,-1.115974,0.521466,-0.439566,-0.794911,-0.418209,0.001135,-0.112392,0.052776,-24.179060,-19.014507,-12.834717,,,,,,,
1504198840.570833,-0.820154,0.905253,0.336107,-1.288050,-1.819709,0.691412,-0.451537,-0.786581,-0.421193,0.005691,-0.158746,-0.024425,-24.930662,-18.417721,-12.916046,,,,,,,
1504198840.580843,-0.839818,0.890590,0.330875,-1.211715,-2.543045,0.913772,-0.468269,-0.777443,-0.419888,0.013039,-0.203346,-0.106022,-24.930662,-18.417721,-12.916046,,,,,,,
1504198840.590852,-0.865303,0.875097,0.327312,-1.180837,-2.867382,1.048890,-0.487929,-0.767606,-0.415580,0.043166,-0.201633,-0.189217,-25.607252,-17.521648,-12.474457,,,,,,,
1504198840.600862,-0.891225,0.858108,0.325922,-1.138410,-2.587775,1.333467,-0.508608,-0.756607,-0.410931,0.102053,-0.093842,-0.183430,-25.607252,-17.521648,-12.474457,,,,,,,
1504198840.610872,-0.915310,0.838950,0.329334,-0.945796,-1.988798,1.752234,-0.529752,-0.743942,-0.407325,0.128705,-0.036835,-0.009072,-26.207396,-16.701885,-11.207123,,,,,,,
1504198840.620882,-0.937304,0.818515,0.338002,-0.685547,-1.420078,2.038813,-0.550721,-0.730132,-0.404492,0.134537,-0.128648,0.241452,-26.207396,-16.701885,-11.207123,,,,,,,
1504198840.630891,-0.958152,0.798708,0.350237,-0.394599,-1.154010,2.102892,-0.570755,-0.716455,-0.401162,0.098862,-0.287589,0.416146,-27.333784,-15.882840,-10.766052,,,,,,,
1504198840.640901,-0.978655,0.780284,0.363429,-0.241126,-1.099765,2.009131,-0.589713,-0.703481,-0.396677,0.069144,-0.302317,0.415522,-27.333784,-15.882840,-10.766052,,,,,,,
1504198840.650911,-0.996696,0.762949,0.374698,-0.307604,-0.969056,1.856147,-0.606923,-0.691056,-0.392539,0.073369,-0.154541,0.262168,-28.011671,-14.461759,-10.328400,,,,,,,
1504198840.660921,-1.009132,0.745707,0.383091,-0.446946,-0.571411,1.765543,-0.621751,-0.678491,-0.391249,0.051133,-0.058127,0.164000,-28.011671,-14.461759,-10.328400,,,,,,,
1504198840.670930,-1.017316,0.727875,0.390194,-0.501339,-0.274771,1.808689,-0.635125,-0.665284,-0.392446,-0.007560,-0.059783,0.164083,-28.463484,-13.564374,-10.036285,,,,,,,
1504198840.680940,-1.023861,0.709391,0.397561,-0.479351,-0.150349,1.877889,-0.648073,-0.651372,-0.394609,-0.028883,-0.057857,0.203417,-28.463484,-13.564374,-10.036285,,,,,,,
1504198840.690950,-1.030300,0.690800,0.405365,-0.429345,-0.151853,1.903595,-0.660870,-0.637154,-0.396591,-0.005344,-0.097083,0.282684,-29.066420,-12.441922,-10.121216,,,,,,,
1504198840.700960,-1.035585,0.672864,0.412905,-0.399680,0.024898,1.800865,-0.672680,-0.623228,-0.398858,0.013943,-0.151613,0.308053,-29.066420,-12.441922,-10.121216,,,,,,,
1504198840.710970,-1.038585,0.656350,0.418871,-0.434685,0.064813,1.609668,-0.682650,-0.610230,-0.402006,0.054491,-0.117996,0.258909,-29.519621,-11.168942,-10.131897,,,,,,,
1504198840.720979,-1.041312,0.641546,0.422673,-0.504967,-0.066496,1.371748,-0.691465,-0.598435,-0.404663,0.075498,-0.034667,0.206939,-29.519621,-11.168942,-10.131897,,,,,,,
1504198840.730989,-1.043517,0.628455,0.424589,-0.536359,-0.122492,1.158311,-0.699066,-0.587896,-0.407044,0.095719,-0.013407,0.162034,-29.746382,-10.420102,-10.063080,,,,,,,
1504198840.740999,-1.046053,0.616752,0.425846,-0.477791,-0.214486,1.033689,-0.706003,-0.578389,-0.408689,0.080377,0.012837,0.150998,-29.746382,-10.420102,-10.063080,,,,,,,
1504198840.751009,-1.050058,0.606161,0.427901,-0.349027,-0.281572,0.993469,-0.712908,-0.569717,-0.408883,0.053637,0.036361,0.171975,-29.899214,-9.295774,-10.071899,,,,,,,
1504198840.761018,-1.054454,0.596058,0.430917,-0.262460,-0.256722,1.004249,-0.719667,-0.561385,-0.408566,0.025896,0.034407,0.189313,-29.899214,-9.295774,-10.071899,,,,,,,
1504198840.771028,-1.059380,0.585864,0.434579,-0.223667,-0.313566,1.050315,-0.726624,-0.552919,-0.407796,-0.009292,0.046511,0.190679,-30.125303,-8.772077,-9.926392,,,,,,,
1504198840.781038,-1.064630,0.575371,0.438189,-0.274034,-0.331283,1.066270,-0.733789,-0.544146,-0.406766,-0.018164,0.055087,0.187939,-30.125303,-8.772077,-9.926392,,,,,,,
1504198840.791048,-1.069242,0.564079,0.440595,-0.391680,-0.342076,1.105579,-0.740998,-0.534638,-0.406306,-0.009139,0.058060,0.161692,-30.051619,-8.246732,-9.930145,,,,,,,
1504198840.801057,-1.075267,0.551436,0.443822,-0.350799,-0.452361,1.289438,-0.749319,-0.523911,-0.405016,-0.043604,0.023408,0.126344,-30.051619,-8.246732,-9.930145,,,,,,,
1504198840.811067,-1.081987,0.537979,0.447823,-0.336229,-0.461068,1.349253,-0.758180,-0.512402,-0.403246,-0.159224,0.012508,0.134386,-30.128721,-7.272519,-9.712646,,,,,,,
1504198840.821077,-1.088741,0.525029,0.451778,-0.278495,-0.485986,1.285353,-0.766702,-0.501238,-0.401159,-0.203955,-0.007567,0.180929,-30.128721,-7.272519,-9.712646,,,,,,,
1504198840.831056,-1.097095,0.513311,0.456686,-0.135976,-0.597890,1.196136,-0.775201,-0.491064,-0.397392,-0.113563,-0.025614,0.155983,-30.655760,-6.375180,-9.570709,,,,,,,
1504198840.841066,-1.105727,0.503613,0.461667,-0.025258,-0.609267,1.012755,-0.782822,-0.482593,-0.392803,0.014023,-0.006497,0.102108,-30.655760,-6.375180,-9.570709,,,,,,,
1504198840.851076,-1.113032,0.495893,0.466702,0.072967,-0.435149,0.850373,-0.788989,-0.475818,-0.388709,0.085101,0.035571,0.074881,-30.806852,-5.626889,-9.051666,,,,,,,
1504198840.861086,-1.116843,0.489361,0.471582,0.103290,-0.039959,0.751528,-0.793241,-0.470062,-0.387054,0.091321,0.085693,0.114166,-30.806852,-5.626889,-9.051666,,,,,,,
1504198840.871095,-1.115535,0.483606,0.475916,0.085313,0.457918,0.660957,-0.795150,-0.464975,-0.389274,0.039383,0.127954,0.175392,-30.807600,-5.326886,-9.053925,,,,,,,
1504198840.881105,-1.109657,0.478545,0.479562,0.056741,0.837591,0.580183,-0.794946,-0.460488,-0.394984,0.021676,0.159631,0.253443,-30.807600,-5.326886,-9.053925,,,,,,,
1504198840.891115,-1.101260,0.473716,0.482449,-0.000443,0.996883,0.534972,-0.793575,-0.456196,-0.402646,0.002147,0.172505,0.299787,-30.734144,-4.801251,-9.207672,,,,,,,
1504198840.901125,-1.091961,0.469154,0.484699,-0.039323,1.040944,0.485726,-0.791635,-0.452132,-0.410962,-0.016974,0.145186,0.292768,-30.734144,-4.801251,-9.207672,,,,,,,
1504198840.911134,-1.082275,0.465050,0.486537,-0.045239,1.057051,0.414172,-0.789249,-0.448468,-0.419479,0.008304,0.108319,0.237594,-30.961134,-4.500623,-10.035492,,,,,,,
1504198840.921144,-1.072091,0.461847,0.487807,-0.052944,1.092394,0.304154,-0.786194,-0.445602,-0.428179,-0.030975,0.084365,0.195208,-30.961134,-4.500623,-10.035492,,,,,,,
1504198840.931154,-1.060475,0.460224,0.488025,-0.060611,1.203498,0.093666,-0.781797,-0.444149,-0.437635,-0.094744,0.111736,0.170210,-30.587309,-4.347882,-10.560730,,,,,,,
1504198840.941164,-1.046860,0.460464,0.487133,-0.046066,1.398648,-0.157492,-0.775675,-0.444364,-0.448185,-0.077948,0.172269,0.158817,-30.587309,-4.347882,-10.560730,,,,,,,
1504198840.951173,-1.030028,0.463284,0.485277,0.022325,1.673241,-0.380945,-0.766944,-0.446888,-0.460531,-0.029779,0.219807,0.153875,-30.514006,-4.121060,-11.312256,,,,,,,
1504198840.961183,-1.010835,0.468503,0.483328,0.163614,1.870490,-0.583854,-0.755978,-0.451551,-0.473919,-0.032245,0.190870,0.219708,-30.514006,-4.121060,-11.312256,,,,,,,
1504198840.971193,-0.991342,0.475926,0.481887,0.334978,1.863898,-0.725510,-0.743771,-0.458162,-0.486716,-0.027362,0.151247,0.278296,-29.989988,-4.491147,-12.583130,,,,,,,
1504198840.981203,-0.973516,0.484667,0.480761,0.420289,1.677859,-0.800820,-0.731638,-0.465914,-0.497624,0.001520,0.101869,0.243108,-29.989988,-4.491147,-12.583130,,,,,,,
1504198840.991212,-0.958428,0.494125,0.479460,0.444653,1.355902,-0.853580,-0.720409,-0.474261,-0.506051,0.005123,0.052615,0.145959,-29.691084,-4.637860,-13.556305,,,,,,,
1504198841.001222,-0.946874,0.503649,0.477483,0.393664,0.966341,-0.880734,-0.710815,-0.482625,-0.511679,0.016525,0.048939,0.051321,-29.691084,-4.637860,-13.556305,,,,,,,
1504198841.011232,-0.938058,0.512828,0.474649,0.329500,0.677033,-0.886739,-0.702675,-0.490643,-0.515284,0.007728,0.034879,-0.034018,-29.464842,-5.535504,-14.223999,,,,,,,
1504198841.021242,-0.931121,0.521828,0.471724,0.331343,0.519289,-0.867244,-0.695512,-0.498466,-0.517489,-0.030760,0.028907,-0.068693,-29.464842,-5.535504,-14.223999,,,,,,,
1504198841.031252,-0.925331,0.530580,0.469333,0.400933,0.429189,-0.845618,-0.688993,-0.506034,-0.518862,-0.022540,0.038642,-0.036466,-29.313826,-5.984693,-14.295258,,,,,,,
1504198841.041261,-0.920646,0.540462,0.467996,0.549029,0.390694,-0.865574,-0.682541,-0.514532,-0.519033,-0.006317,0.012289,0.036504,-29.313826,-5.984693,-14.295258,,,,,,,
1504198841.051271,-0.916742,0.552609,0.468030,0.814402,0.398247,-1.008159,-0.675499,-0.524910,-0.517852,0.011375,-0.037315,0.088424,-29.011946,-6.733335,-14.288879,,,,,,,
1504198841.061281,-0.913497,0.568826,0.469139,1.137921,0.376710,-1.304299,-0.666988,-0.538643,-0.514772,0.022732,-0.072288,0.110979,-29.011946,-6.733335,-14.288879,,,,,,,
1504198841.071291,-0.910685,0.589171,0.470410,1.369674,0.353795,-1.600594,-0.656744,-0.555672,-0.509820,0.032248,-0.010551,0.111840,-28.935316,-7.557416,-14.582520,,,,,,,
1504198841.081300,-0.907656,0.611928,0.471419,1.484833,0.364757,-1.782939,-0.645063,-0.574446,-0.503890,0.054654,0.071105,0.092544,-28.935316,-7.557416,-14.582520,,,,,,,
1504198841.091310,-0.904919,0.635303,0.472513,1.506906,0.330464,-1.771099,-0.632947,-0.593421,-0.497222,0.016873,0.041419,0.098860,-28.406294,-8.980649,-14.270508,,,,,,,
1504198841.101320,-0.901050,0.657445,0.472969,1.352811,0.455262,-1.693666,-0.620563,-0.611097,-0.491388,-0.078182,0.003415,0.101526,-28.406294,-8.980649,-14.270508,,,,,,,
1504198841.111330,-0.894648,0.677868,0.472391,1.202330,0.636500,-1.608854,-0.607542,-0.627134,-0.487437,-0.195314,-0.060671,0.111110,-28.028578,-10.103818,-14.336121,,,,,,,
1504198841.121339,-0.887562,0.697417,0.470903,1.112048,0.562637,-1.595004,-0.594451,-0.642240,-0.483898,-0.177659,-0.069674,0.102901,-28.028578,-10.103818,-14.336121,,,,,,,
1504198841.131349,-0.881639,0.716671,0.468090,1.041215,0.358656,-1.624655,-0.581922,-0.656878,-0.479457,-0.080752,-0.014631,0.065486,-27.425993,-11.225827,-14.476227,,,,,,,
1504198841.141328,-0.877934,0.735779,0.465176,1.050910,0.113471,-1.608194,-0.570378,-0.671165,-0.473505,-0.031871,0.066749,-0.002859,-27.425993,-11.225827,-14.476227,,,,,,,
1504198841.151338,-0.876053,0.754621,0.461903,1.008816,-0.073739,-1.597263,-0.559671,-0.685013,-0.466397,-0.072913,0.044326,0.032590,-26.973051,-12.348966,-14.391693,,,,,,,
1504198841.161348,-0.874785,0.773046,0.458267,0.958334,-0.097862,-1.568488,-0.549299,-0.698319,-0.458936,-0.092547,0.044892,0.044171,-26.973051,-12.348966,-14.391693,,,,,,,
1504198841.171358,-0.869745,0.791123,0.454817,0.972688,0.381510,-1.539421,-0.537244,-0.711143,-0.453480,-0.082645,0.047417,0.079396,-26.745161,-13.323560,-14.083771,,,,,,,
1504198841.181368,-0.859683,0.809715,0.451335,1.045015,0.853032,-1.594565,-0.522545,-0.724091,-0.450155,-0.092979,-0.025848,0.235891,-26.745161,-13.323560,-14.083771,,,,,,,
1504198841.191377,-0.847035,0.829765,0.447665,1.116507,1.049694,-1.708998,-0.505828,-0.737773,-0.447022,-0.088899,0.040324,0.329133,-26.066954,-14.595517,-14.072540,,,,,,,
1504198841.201387,-0.832312,0.850637,0.442722,1.159087,1.119758,-1.791238,-0.487697,-0.751701,-0.443957,-0.111959,0.141624,0.282321,-26.066954,-14.595517,-14.072540,,,,,,,
1504198841.211397,-0.816470,0.871806,0.436749,1.142244,1.131646,-1.817973,-0.468900,-0.765492,-0.440630,-0.134967,0.173558,0.220430,-25.540876,-15.342114,-14.590668,,,,,,,
1504198841.221407,-0.800068,0.892315,0.429306,1.041021,1.025902,-1.800884,-0.450250,-0.778527,-0.437230,-0.133643,0.134988,0.199178,-25.540876,-15.342114,-14.590668,,,,,,,
1504198841.231416,-0.784013,0.911261,0.420471,0.905992,0.879858,-1.701592,-0.432679,-0.790277,-0.433879,-0.127258,0.101221,0.152202,-24.637602,-16.687923,-14.653290,,,,,,,
1504198841.241426,-0.768382,0.928212,0.411009,0.775413,0.783816,-1.558617,-0.416474,-0.800550,-0.430894,-0.092742,0.050077,0.094987,-24.637602,-16.687923,-14.653290,,,,,,,
1504198841.251436,-0.754119,0.943326,0.401789,0.700937,0.643603,-1.397321,-0.401955,-0.809515,-0.427922,-0.088538,-0.056345,0.088154,-24.034925,-17.884792,-14.867798,,,,,,,
1504198841.261446,-0.741868,0.956707,0.392681,0.586573,0.425972,-1.277586,-0.389329,-0.817298,-0.424790,-0.059051,-0.074654,0.052720,-24.034925,-17.884792,-14.867798,,,,,,,
1504198841.271455,-0.730167,0.968469,0.382480,0.430695,0.325946,-1.202962,-0.377893,-0.824019,-0.422124,-0.056036,-0.096818,0.015355,-23.507444,-18.782726,-14.709778,,,,,,,
1504198841.281465,-0.717602,0.979301,0.371762,0.409561,0.381481,-1.155063,-0.366668,-0.830108,-0.420090,-0.130219,-0.128495,0.011337,-23.507444,-18.782726,-14.709778,,,,,,,
1504198841.291475,-0.703703,0.989097,0.360403,0.306464,0.465390,-1.099885,-0.355516,-0.835530,-0.418924,-0.117385,-0.073619,0.062693,-22.830534,-19.454998,-14.553040,,,,,,,
1504198841.301485,-0.689076,0.997403,0.349030,0.221935,0.517098,-0.968832,-0.344926,-0.840065,-0.418709,-0.090514,-0.054299,0.074379,-22.830534,-19.454998,-14.553040,,,,,,,
1504198841.311494,-0.676854,1.003953,0.339282,0.160861,0.341571,-0.770091,-0.336329,-0.843600,-0.418595,-0.085638,-0.102338,0.091065,-22.455717,-19.602566,-14.925995,,,,,,,
1504198841.321504,-0.667923,1.008253,0.330426,-0.007458,0.078513,-0.601270,-0.330327,-0.845902,-0.418730,-0.028956,-0.172455,0.056516,-22.455717,-19.602566,-14.925995,,,,,,,
1504198841.331514,-0.661529,1.010320,0.321292,-0.178883,-0.204712,-0.483653,-0.326568,-0.847002,-0.419453,-0.020295,-0.226194,-0.000759,-21.928724,-20.350353,-14.844055,,,,,,,
1504198841.341524,-0.657371,1.010650,0.311703,-0.315683,-0.454079,-0.408732,-0.324651,-0.847178,-0.420585,-0.069835,-0.222952,0.007271,-21.928724,-20.350353,-14.844055,,,,,,,
1504198841.351534,-0.654178,1.009944,0.301367,-0.411688,-0.573720,-0.390542,-0.323670,-0.846802,-0.422095,-0.091064,-0.229355,0.026190,-21.628660,-20.423855,-14.917755,,,,,,,
1504198841.361543,-0.650616,1.008748,0.290875,-0.436842,-0.497887,-0.359764,-0.322778,-0.846165,-0.424051,-0.108878,-0.261226,0.064432,-21.628660,-20.423855,-14.917755,,,,,,,
1504198841.371553,-0.646330,1.007293,0.282319,-0.359488,-0.220531,-0.236301,-0.321698,-0.845389,-0.426413,-0.158008,-0.286538,0.131064,-21.404417,-20.122845,-14.919464,,,,,,,
1504198841.381563,-0.642656,1.005949,0.278613,-0.187835,0.162517,-0.025333,-0.320810,-0.844670,-0.428501,-0.123740,-0.296901,0.212207,-21.404417,-20.122845,-14.919464,,,,,,,
1504198841.391573,-0.638682,1.004676,0.279351,-0.041622,0.545810,0.152501,-0.319745,-0.843988,-0.430635,-0.012835,-0.318274,0.275911,-21.628538,-20.424007,-14.842743,,,,,,,
1504198841.401582,-0.635753,1.003804,0.284382,0.140647,0.750879,0.302959,-0.318920,-0.843520,-0.432162,0.030162,-0.325013,0.310809,-21.628538,-20.424007,-14.842743,,,,,,,
1504198841.411592,-0.635361,1.004021,0.292899,0.337631,0.739601,0.365229,-0.318641,-0.843637,-0.432139,-0.021920,-0.301138,0.285762,-21.930052,-20.049603,-15.221313,,,,,,,
1504198841.421602,-0.638458,1.005611,0.303417,0.501228,0.508099,0.350977,-0.319179,-0.844489,-0.430073,-0.047597,-0.211602,0.216298,-21.930052,-20.049603,-15.221313,,,,,,,
1504198841.431612,-0.646172,1.009527,0.315575,0.597380,0.221765,0.295081,-0.320493,-0.846580,-0.424955,-0.021564,-0.096474,0.128660,-21.554899,-20.197628,-15.369263,,,,,,,
1504198841.441621,-0.653536,1.012219,0.325527,0.498295,0.074515,0.245001,-0.322227,-0.848010,-0.420772,-0.022164,0.001574,0.044048,-21.554899,-20.197628,-15.369263,,,,,,,
1504198841.451631,-0.661340,1.013699,0.333297,0.321138,-0.205332,0.233446,-0.324729,-0.848794,-0.417253,-0.013345,0.031991,0.038301,-21.480131,-19.972744,-15.145752,,,,,,,
1504198841.461610,-0.671549,1.013405,0.338768,0.098572,-0.673450,0.254166,-0.329127,-0.848638,-0.414112,-0.012853,0.040884,0.043125,-21.480131,-19.972744,-15.145752,,,,,,,
1504198841.471620,-0.686364,1.006948,0.343921,-0.082283,-1.103525,0.312249,-0.338692,-0.845205,-0.413421,-0.024605,0.098775,-0.025880,-22.079405,-20.125881,-14.921112,,,,,,,
1504198841.481625,-0.703685,1.004217,0.347515,-0.070845,-1.533069,0.325835,-0.347294,-0.843742,-0.409252,-0.016537,0.145210,-0.046803,-22.079405,-20.125881,-14.921112,,,,,,,
1504198841.491635,-0.725838,1.001883,0.352638,0.034138,-1.848340,0.377808,-0.357580,-0.842487,-0.402929,-0.038111,0.093479,-0.013452,-22.454069,-20.128017,-14.697052,,,,,,,
1504198841.501644,-0.751444,0.999747,0.360620,0.161450,-1.866558,0.493340,-0.369007,-0.841334,-0.394957,-0.079495,0.033015,0.000303,-22.454069,-20.128017,-14.697052,,,,,,,
1504198841.511654,-0.778828,0.996811,0.372887,0.252455,-1.582975,0.670189,-0.381416,-0.839743,-0.386462,-0.046272,0.001288,0.023974,-22.903227,-19.832134,-13.650360,,,,,,,
1504198841.521664,-0.803900,0.994064,0.388499,0.475663,-1.059633,0.823359,-0.392644,-0.838249,-0.378377,0.010121,0.008461,0.067098,-22.903227,-19.832134,-13.650360,,,,,,,
1504198841.531674,-0.825917,0.992542,0.406899,0.659502,-0.519764,0.767220,-0.401817,-0.837418,-0.370506,0.035255,0.063721,0.112617,-23.577131,-19.687115,-12.678162,,,,,,,
1504198841.541684,-0.841850,0.992749,0.423939,0.698470,-0.052060,0.548713,-0.407540,-0.837531,-0.363941,0.071724,0.092612,0.140538,-23.577131,-19.687115,-12.678162,,,,,,,
1504198841.551693,-0.850620,0.994273,0.436829,0.602078,0.274012,0.288592,-0.409756,-0.838363,-0.359511,0.114590,0.155868,0.143783,-23.952360,-19.464245,-12.455750,,,,,,,
1504198841.561703,-0.853560,0.997051,0.444998,0.483969,0.410600,0.014892,-0.409054,-0.839874,-0.356772,0.177318,0.238434,0.096137,-23.952360,-19.464245,-12.455750,,,,,,,
1504198841.571713,-0.852120,1.000753,0.447858,0.319477,0.362137,-0.240417,-0.406196,-0.841878,-0.355312,0.197609,0.269490,0.080852,-23.577635,-19.312710,-12.380951,,,,,,,
1504198841.581723,-0.847370,1.005214,0.445312,0.147771,0.219947,-0.482764,-0.401685,-0.844277,-0.354748,0.155805,0.268578,0.098797,-23.577635,-19.312710,-12.380951,,,,,,,
1504198841.591733,-0.839635,1.010032,0.437503,-0.035855,0.082073,-0.681376,-0.395897,-0.846849,-0.355124,0.103340,0.256837,0.104376,-23.577360,-19.462551,-12.454834,,,,,,,
1504198841.601743,-0.828838,1.014539,0.425096,-0.236330,0.023106,-0.797966,-0.389222,-0.849237,-0.356795,0.067383,0.267389,0.109038,-23.577360,-19.462551,-12.454834,,,,,,,
1504198841.611753,-0.814598,1.017114,0.408650,-0.542758,0.022389,-0.755800,-0.382509,-0.850594,-0.360799,0.034395,0.244469,0.095266,-23.351240,-19.911541,-12.450897,,,,,,,
1504198841.621763,-0.798807,1.016104,0.389386,-0.884969,-0.099652,-0.578989,-0.377381,-0.850062,-0.367393,-0.020340,0.152369,0.037834,-23.351240,-19.911541,-12.450897,,,,,,,
1504198841.631771,-0.784051,1.011328,0.368362,-1.206146,-0.391299,-0.398640,-0.374781,-0.847538,-0.375792,-0.042410,0.053852,-0.034014,-23.201017,-20.135418,-12.673859,,,,,,,
1504198841.641781,-0.769843,1.005535,0.348558,-1.147637,-0.257552,-0.363550,-0.372815,-0.844449,-0.384598,-0.038882,0.030346,-0.098892,-23.201017,-20.135418,-12.673859,,,,,,,
1504198841.651791,-0.755286,0.999764,0.331590,-1.016100,0.155699,-0.190064,-0.370512,-0.841343,-0.393525,-0.012163,-0.056987,0.063630,-23.276731,-19.985317,-12.900146,,,,,,,
1504198841.661801,-0.742654,0.993477,0.323734,-0.647322,0.759634,0.212988,-0.369081,-0.837928,-0.402063,0.108385,-0.258736,0.369425,-23.276731,-19.985317,-12.900146,,,,,,,
1504198841.671811,-0.731728,0.986927,0.324361,-0.433669,1.260503,0.534831,-0.368325,-0.834336,-0.410146,-0.042212,-0.405014,0.513937,-22.977858,-19.758221,-13.276093,,,,,,,
1504198841.681820,-0.719466,0.978513,0.327452,-0.574420,1.532112,0.739049,-0.367882,-0.829668,-0.419897,-0.170631,-0.319578,0.458929,-22.977858,-19.758221,-13.276093,,,,,,,
1504198841.691830,-0.706128,0.967111,0.330230,-0.821599,1.541442,0.897648,-0.368363,-0.823249,-0.431937,-0.141677,-0.151406,0.127264,-22.904585,-19.606091,-14.177063,,,,,,,
1504198841.701840,-0.694949,0.954196,0.332877,-0.892461,1.254255,0.954603,-0.370290,-0.815849,-0.444157,-0.066737,-0.028420,-0.194393,-22.904585,-19.606091,-14.177063,,,,,,,
1504198841.711850,-0.688734,0.941595,0.336636,-0.795871,0.804819,0.976911,-0.374027,-0.808498,-0.454352,-0.002087,-0.035603,-0.328012,-22.907530,-18.929440,-15.007141,,,,,,,
1504198841.721859,-0.688817,0.930342,0.342867,-0.573071,0.396963,1.003634,-0.379823,-0.801824,-0.461315,0.013445,-0.030573,-0.277470,-22.907530,-18.929440,-15.007141,,,,,,,
1504198841.731869,-0.693711,0.921087,0.351217,-0.336014,0.132909,0.969287,-0.386805,-0.796260,-0.465137,-0.018758,0.001933,-0.140759,-22.985121,-18.253582,-15.612396,,,,,,,
1504198841.741879,-0.701017,0.912925,0.361829,-0.166112,0.084536,1.053991,-0.394372,-0.791295,-0.467250,-0.026923,-0.093486,0.030620,-22.985121,-18.253582,-15.612396,,,,,,,
1504198841.751889,-0.712992,0.904475,0.376343,-0.044893,-0.096778,1.274406,-0.404298,-0.786100,-0.467535,0.059007,-0.164537,0.184561,-23.360426,-17.955853,-15.315582,,,,,,,
1504198841.761899,-0.727786,0.894644,0.391417,-0.139656,-0.395560,1.398587,-0.416292,-0.779986,-0.467250,0.140428,-0.293485,0.154399,-23.360426,-17.955853,-15.315582,,,,,,,
1504198841.771909,-0.744260,0.884219,0.404858,-0.230931,-0.670684,1.288972,-0.429417,-0.773420,-0.466286,0.181599,-0.315615,0.078392,-23.962187,-17.432949,-15.621002,,,,,,,
1504198841.781919,-0.761046,0.875090,0.414820,-0.228781,-0.976239,1.009855,-0.442035,-0.767601,-0.464106,0.241809,-0.269157,0.046579,-23.962187,-17.432949,-15.621002,,,,,,,
1504198841.791898,-0.777113,0.868722,0.420019,-0.223847,-1.302958,0.566400,-0.452852,-0.763504,-0.460419,0.239443,-0.155487,0.133790,-24.187605,-16.910168,-15.025482,,,,,,,
1504198841.801908,-0.794038,0.865809,0.420978,-0.117314,-1.708343,0.162754,-0.462164,-0.761620,-0.454247,0.147635,-0.057915,0.166267,-24.187605,-16.910168,-15.025482,,,,,,,
1504198841.811918,-0.813872,0.865471,0.421466,0.051751,-1.998373,0.027998,-0.471269,-0.761401,-0.445168,0.064210,0.043612,0.117882,-24.862715,-16.688793,-14.728851,,,,,,,
1504198841.821926,-0.837063,0.866590,0.424914,0.286638,-2.069642,0.095777,-0.480832,-0.762126,-0.433549,-0.026522,0.081248,0.179902,-24.862715,-16.688793,-14.728851,,,,,,,
1504198841.831936,-0.862418,0.867673,0.431833,0.445601,-1.969887,0.258122,-0.491042,-0.762826,-0.420682,-0.145097,0.038140,0.207716,-25.536085,-16.619213,-13.531036,,,,,,,
1504198841.841946,-0.888233,0.867996,0.442151,0.562946,-1.719571,0.448949,-0.501546,-0.763035,-0.407712,-0.281474,-0.041607,0.181287,-25.536085,-16.619213,-13.531036,,,,,,,
1504198841.851956,-0.911906,0.867874,0.454648,0.642920,-1.291913,0.501704,-0.511130,-0.762956,-0.395783,-0.411188,-0.054533,0.179703,-25.760038,-16.322613,-12.333832,,,,,,,
1504198841.861966,-0.929863,0.869982,0.465499,0.693934,-0.867861,0.150936,-0.516864,-0.764318,-0.385578,-0.531919,-0.002513,0.201756,-25.760038,-16.322613,-12.333832,,,,,,,
1504198841.871975,-0.941835,0.875632,0.472503,0.693900,-0.608469,-0.282886,-0.517943,-0.767948,-0.376816,-0.388109,0.055760,0.205552,-26.209394,-16.175991,-11.661041,,,,,,,
1504198841.881985,-0.949406,0.883236,0.476379,0.626266,-0.412653,-0.527784,-0.516017,-0.772797,-0.369474,-0.114338,0.143616,0.163633,-26.209394,-16.175991,-11.661041,,,,,,,
1504198841.891995,-0.955939,0.893195,0.478423,0.720547,-0.545261,-0.818788,-0.512108,-0.779078,-0.361638,-0.125877,0.242000,0.108021,-26.208113,-16.327175,-11.059937,,,,,,,
1504198841.902005,-0.959944,0.905855,0.476998,0.620555,-0.457762,-1.167088,-0.505432,-0.786953,-0.353898,-0.130509,0.229397,0.113175,-26.208113,-16.327175,-11.059937,,,,,,,
1504198841.912014,-0.959435,0.920254,0.471602,0.520158,-0.365025,-1.425737,-0.495921,-0.795756,-0.347614,-0.073293,0.268412,0.082538,-25.755247,-17.151211,-10.527588,,,,,,,
1504198841.922024,-0.953569,0.935757,0.462413,0.408409,-0.057000,-1.630348,-0.483754,-0.805048,-0.343336,-0.008235,0.276881,0.127637,-25.755247,-17.151211,-10.527588,,,,,,,
1504198841.932034,-0.940190,0.951346,0.448341,0.192318,0.306185,-1.790406,-0.468923,-0.814198,-0.342335,0.033819,0.219776,0.139713,-25.227659,-18.049297,-10.294556,,,,,,,
1504198841.942044,-0.919114,0.968535,0.430532,0.232440,0.759004,-2.050514,-0.450410,-0.824057,-0.343601,0.004563,0.174093,0.180881,-25.227659,-18.049297,-10.294556,,,,,,,
1504198841.952053,-0.892364,0.988574,0.409564,0.337400,1.002507,-2.382723,-0.428114,-0.835243,-0.345091,0.019057,0.147010,0.179579,-24.700850,-18.946346,-10.586517,,,,,,,
1504198841.962063,-0.858049,1.010712,0.382854,0.290753,1.245108,-2.695981,-0.401933,-0.847210,-0.347397,-0.025359,0.051312,0.196946,-24.700850,-18.946346,-10.586517,,,,,,,
1504198841.972073,-0.815449,1.033072,0.350283,0.188969,1.520990,-2.810855,-0.372886,-0.858876,-0.351123,-0.011925,-0.028315,0.165286,-23.947844,-20.367229,-10.948975,,,,,,,
1504198841.982083,-0.765624,1.053137,0.312407,0.002672,1.753681,-2.735803,-0.342923,-0.868980,-0.356761,0.065259,-0.066659,0.194407,-23.947844,-20.367229,-10.948975,,,,,,,
1504198841.992092,-0.710016,1.069098,0.269535,-0.308968,1.838139,-2.581719,-0.313482,-0.876767,-0.364703,-0.005075,-0.092395,0.190691,-22.146421,-21.332806,-11.612213,,,,,,,
1504198842.002102,-0.649377,1.080734,0.222164,-0.559812,1.906135,-2.449915,-0.284616,-0.882303,-0.374879,-0.117316,-0.115087,0.219865,-22.146421,-21.332806,-11.612213,,,,,,,
1504198842.012112,-0.587488,1.089419,0.173729,-0.598021,1.890312,-2.301585,-0.256628,-0.886358,-0.385372,-0.140055,-0.094614,0.264507,-20.869932,-22.599834,-12.724548,,,,,,,
1504198842.022122,-0.527903,1.096652,0.127505,-0.467945,1.840065,-2.149700,-0.229989,-0.889684,-0.394422,-0.113960,-0.033885,0.261472,-20.869932,-22.599834,-12.724548,,,,,,,
1504198842.032132,-0.471690,1.104138,0.084615,-0.200100,1.783394,-2.034924,-0.204433,-0.893076,-0.400776,-0.105671,-0.009725,0.216953,-19.670378,-23.042355,-13.768219,,,,,,,
1504198842.042141,-0.420303,1.113067,0.045671,0.125277,1.582395,-1.920861,-0.180316,-0.897058,-0.403450,-0.064450,-0.071508,0.181603,-19.670378,-23.042355,-13.768219,,,,,,,
1504198842.052151,-0.376727,1.121844,0.010428,0.217384,0.970805,-1.686929,-0.159668,-0.900902,-0.403585,-0.077454,-0.129508,0.086614,-18.319181,-23.785381,-14.209229,,,,,,,
1504198842.062161,-0.348263,1.128802,-0.018959,0.201697,0.023259,-1.342649,-0.145974,-0.903900,-0.402064,-0.130287,-0.221725,-0.088048,-18.319181,-23.785381,-14.209229,,,,,,,
1504198842.072171,-0.331680,1.134434,-0.040746,0.230447,-0.406822,-0.950104,-0.137627,-0.906295,-0.399610,-0.097892,-0.285264,-0.339419,-17.343031,-24.380566,-14.427368,,,,,,,
1504198842.082181,-0.323598,1.139916,-0.053496,0.390641,-0.306202,-0.605233,-0.132811,-0.908598,-0.395992,-0.036592,-0.234071,-0.213398,-17.343031,-24.380566,-14.427368,,,,,,,
1504198842.092191,-0.318944,1.145891,-0.059641,0.502889,-0.003667,-0.378215,-0.129262,-0.911078,-0.391445,0.045003,-0.235422,0.048366,-16.592146,-24.602642,-14.198792,,,,,,,
1504198842.102201,-0.316344,1.150900,-0.060455,0.439403,0.223561,-0.120415,-0.126822,-0.913131,-0.387437,0.034278,-0.170716,0.209824,-16.592146,-24.602642,-14.198792,,,,,,,
1504198842.112180,-0.315470,1.154499,-0.058334,0.352908,0.282767,-0.010726,-0.125463,-0.914592,-0.384421,-0.080942,-0.135991,0.251655,-16.365294,-25.202068,-13.968719,,,,,,,
1504198842.122190,-0.316785,1.157711,-0.055291,0.335162,0.083615,0.019481,-0.125053,-0.915887,-0.381463,-0.083077,-0.102088,0.198891,-16.365294,-25.202068,-13.968719,,,,,,,
1504198842.132200,-0.319283,1.160158,-0.053605,0.220494,-0.142365,-0.027285,-0.125301,-0.916866,-0.379020,-0.002964,0.001339,0.122901,-16.365080,-25.202374,-13.818726,,,,,,,
1504198842.142208,-0.321185,1.161915,-0.053980,0.147418,-0.241873,-0.081673,-0.125514,-0.917566,-0.377252,-0.015722,0.002145,0.068643,-16.365080,-25.202374,-13.818726,,,,,,,
1504198842.152218,-0.321467,1.162873,-0.056441,0.011016,-0.247099,-0.123529,-0.125342,-0.917947,-0.376382,-0.046854,-0.012275,0.100640,-16.289961,-25.202190,-13.743561,,,,,,,
1504198842.162228,-0.320591,1.161392,-0.059498,-0.230040,-0.187655,-0.042929,-0.125441,-0.917358,-0.377781,-0.074907,0.022689,0.144414,-16.289961,-25.202190,-13.743561,,,,,,,
1504198842.172238,-0.322353,1.158462,-0.060017,-0.265222,-0.222689,0.109710,-0.126957,-0.916188,-0.380107,-0.004787,0.065343,0.179103,-16.513716,-25.429089,-13.292419,,,,,,,
1504198842.182248,-0.333370,1.159063,-0.053041,0.301507,-0.630325,0.275791,-0.130957,-0.916429,-0.378165,0.017691,-0.039718,0.210318,-16.513716,-25.429089,-13.292419,,,,,,,
1504198842.192257,-0.356429,1.163244,-0.041783,0.593503,-1.483065,0.262857,-0.138303,-0.918094,-0.371451,0.030729,0.054019,0.128287,-16.515684,-24.828503,-13.596924,,,,,,,
1504198842.202267,-0.383922,1.166942,-0.033724,0.376510,-2.157783,0.118504,-0.147189,-0.919553,-0.364359,0.090945,0.335416,-0.182684,-16.515684,-24.828503,-13.596924,,,,,,,
1504198842.212277,-0.408355,1.167864,-0.034186,-0.015079,-2.575223,-0.118401,-0.155710,-0.919915,-0.359876,0.095560,0.344628,-0.227435,-17.114637,-24.832531,-12.923401,,,,,,,
1504198842.222287,-0.427784,1.167730,-0.042205,-0.145129,-2.675193,-0.302044,-0.162723,-0.919863,-0.356895,0.076297,0.189440,-0.096536,-17.114637,-24.832531,-12.923401,,,,,,,
1504198842.232296,-0.454155,1.170402,-0.039690,0.494936,-2.312171,0.085892,-0.170998,-0.920907,-0.350270,0.087716,0.054452,0.007436,-17.187346,-24.985424,-11.647430,,,,,,,
1504198842.242306,-0.491310,1.176813,-0.021513,0.975312,-1.946698,0.407368,-0.181102,-0.923387,-0.338464,0.059841,-0.063368,0.123117,-17.187346,-24.985424,-11.647430,,,,,,,
1504198842.252316,-0.537259,1.185360,0.008410,1.418091,-1.817360,0.614984,-0.192412,-0.926635,-0.322996,-0.057894,-0.197358,0.236539,-17.860609,-25.140240,-10.747955,,,,,,,
1504198842.262326,-0.592853,1.195719,0.048622,1.728943,-1.832827,0.729762,-0.204687,-0.930479,-0.303828,-0.095285,-0.138948,0.154383,-17.860609,-25.140240,-10.747955,,,,,,,
1504198842.272336,-0.653276,1.206174,0.094619,1.847251,-1.716582,0.726559,-0.216736,-0.934258,-0.283172,-0.008896,-0.100577,0.052994,-18.308455,-25.145107,-9.324036,,,,,,,
1504198842.282346,-0.713997,1.217374,0.142821,1.954523,-1.483923,0.555551,-0.226654,-0.938194,-0.261574,-0.026382,-0.098611,0.052925,-18.308455,-25.145107,-9.324036,,,,,,,
1504198842.292356,-0.772647,1.229503,0.192092,2.046709,-1.145628,0.369386,-0.233636,-0.942323,-0.239671,-0.028541,-0.029983,0.061555,-19.055220,-25.451778,-7.673584,,,,,,,
1504198842.302366,-0.829493,1.241849,0.242674,2.049831,-0.834367,0.241822,-0.238276,-0.946383,-0.218137,-0.023565,-0.009244,0.092390,-19.055220,-25.451778,-7.673584,,,,,,,
1504198842.312374,-0.887804,1.253964,0.296293,2.089233,-0.740867,0.192625,-0.241672,-0.950227,-0.196630,-0.058560,-0.039733,0.107900,-18.903334,-25.304089,-6.174347,,,,,,,
1504198842.322384,-0.954466,1.264963,0.357128,2.150415,-0.911951,0.273088,-0.245689,-0.953596,-0.174042,-0.034035,-0.053697,0.102631,-18.903334,-25.304089,-6.174347,,,,,,,
1504198842.332394,-1.028363,1.273792,0.423422,2.118570,-1.107843,0.354501,-0.250647,-0.956218,-0.151076,0.021582,-0.099034,0.066969,-19.200621,-25.533276,-4.748383,,,,,,,
1504198842.342404,-1.102857,1.280856,0.489374,1.958788,-1.123497,0.277398,-0.255161,-0.958261,-0.128953,0.008381,-0.107764,0.010590,-19.200621,-25.533276,-4.748383,,,,,,,
1504198842.352414,-1.169418,1.287261,0.548181,1.711520,-0.962454,0.054666,-0.257518,-0.960072,-0.109296,-0.006688,-0.081126,0.010831,-19.573774,-25.238400,-3.026520,,,,,,,
1504198842.362423,-1.226410,1.294277,0.599518,1.537789,-0.695429,-0.195878,-0.256979,-0.962011,-0.092173,-0.014567,-0.010736,0.040659,-19.573774,-25.238400,-3.026520,,,,,,,
1504198842.372433,-1.275417,1.302122,0.645968,1.400876,-0.330722,-0.398497,-0.253958,-0.964124,-0.077274,-0.044428,0.050717,0.089176,-19.271910,-25.314297,-1.900177,,,,,,,
1504198842.382443,-1.316796,1.310857,0.687982,1.246558,-0.001047,-0.590411,-0.248776,-0.966405,-0.064584,-0.113254,0.061330,0.177163,-19.271910,-25.314297,-1.900177,,,,,,,
1504198842.392453,-1.347481,1.320605,0.722093,0.998239,0.305974,-0.796324,-0.241442,-0.968865,-0.054832,-0.126829,0.087548,0.223503,-19.119795,-25.615414,-0.997528,,,,,,,
1504198842.402462,-1.363282,1.331761,0.743984,0.671232,0.624335,-1.037618,-0.231686,-0.971567,-0.048780,-0.099109,0.148813,0.215132,-19.119795,-25.615414,-0.997528,,,,,,,
1504198842.412472,-1.362240,1.344495,0.751645,0.367375,0.911588,-1.263873,-0.219513,-0.974503,-0.046456,-0.078918,0.197815,0.199731,-18.518370,-26.137875,-0.917114,,,,,,,
1504198842.422482,-1.347220,1.358899,0.746987,0.152241,1.088349,-1.486577,-0.205080,-0.977634,-0.046631,-0.034895,0.259250,0.184067,-18.518370,-26.137875,-0.917114,,,,,,,
1504198842.432492,-1.313328,1.374791,0.721450,-0.233189,0.791242,-1.695932,-0.188333,-0.980852,-0.049590,-0.006018,0.213641,0.200393,-18.142088,-26.735882,-1.061676,,,,,,,
1504198842.442472,-1.248137,1.390582,0.662917,-0.699224,0.846405,-1.865486,-0.169991,-0.983805,-0.056835,-0.116462,0.200327,0.140637,-18.142088,-26.735882,-1.061676,,,,,,,
1504198842.452482,-1.160070,1.406574,0.587954,-0.531401,1.628336,-1.959438,-0.149888,-0.986546,-0.065276,-0.132186,0.240147,0.106947,-17.091337,-27.255413,-1.430176,,,,,,,
1504198842.462490,-1.059188,1.422390,0.507502,-0.424764,2.279620,-1.974278,-0.128929,-0.989008,-0.072390,0.187050,0.161005,0.391146,-17.091337,-27.255413,-1.430176,,,,,,,
1504198842.472500,-0.928328,1.436505,0.400330,-0.509202,2.508386,-2.005782,-0.107193,-0.990996,-0.080222,0.037491,0.142760,0.510825,-16.265806,-27.925213,-2.173065,,,,,,,
1504198842.482472,-0.770297,1.447870,0.266429,-0.548824,2.510809,-1.972766,-0.085384,-0.992454,-0.088002,-0.129002,0.081855,0.383657,-16.265806,-27.925213,-2.173065,,,,,,,
1504198842.492482,-0.591949,1.455433,0.111200,-0.589756,2.385311,-1.881886,-0.064228,-0.993353,-0.095523,-0.107479,-0.045709,0.284686,-14.542173,-28.139919,-3.442139,,,,,,,
1504198842.502491,-0.401653,1.458821,-0.056855,-0.603416,2.316097,-1.820946,-0.043684,-0.993737,-0.102849,-0.080995,-0.143714,0.207066,-14.542173,-28.139919,-3.442139,,,,,,,
1504198842.512501,-0.228455,1.458065,-0.210982,-0.603879,1.794682,-1.493402,-0.025476,-0.993653,-0.109569,-0.087072,-0.089493,0.136379,-13.566114,-28.959194,-4.108582,,,,,,,
1504198842.522511,-0.146091,1.454366,-0.287323,-0.483230,0.245478,-0.568226,-0.016911,-0.993230,-0.114930,-0.077526,-0.173869,0.113785,-13.566114,-28.959194,-4.108582,,,,,,,
1504198842.532521,-0.131511,1.451622,-0.306214,-0.204636,-0.520265,-0.107409,-0.015591,-0.992907,-0.117866,-0.096439,-0.394666,-0.156899,-12.816984,-29.104183,-4.930603,,,,,,,
1504198842.542531,-0.132114,1.452621,-0.309577,0.182060,-0.277382,-0.024978,-0.015531,-0.993025,-0.116873,0.021543,-0.359727,-0.125773,-12.816984,-29.104183,-4.930603,,,,,,,
1504198842.552540,-0.140990,1.456428,-0.300056,0.448120,0.107126,0.084748,-0.016036,-0.993467,-0.112987,-0.018937,-0.093706,0.142039,-12.442183,-29.027493,-4.930237,,,,,,,
1504198842.562550,-0.166292,1.461906,-0.274994,0.626095,-0.090568,0.236976,-0.017989,-0.994077,-0.107176,-0.028871,-0.087481,0.241194,-12.442183,-29.027493,-4.930237,,,,,,,
1504198842.572560,-0.216671,1.468694,-0.226599,0.807275,-0.274458,0.410533,-0.021912,-0.994792,-0.099542,0.044281,-0.047948,0.108087,-12.891539,-29.105114,-4.630798,,,,,,,
1504198842.582570,-0.296189,1.476310,-0.152001,0.952089,-0.626375,0.546965,-0.027537,-0.995539,-0.090237,0.059871,-0.039937,0.064465,-12.891539,-29.105114,-4.630798,,,,,,,
1504198842.592579,-0.412915,1.484271,-0.043149,1.135962,-0.899754,0.679056,-0.034677,-0.996259,-0.079154,0.071375,-0.069171,0.065208,-12.891279,-29.030712,-4.331360,,,,,,,
1504198842.602589,-0.583178,1.492029,0.116475,1.368777,-1.184203,0.820858,-0.043331,-0.996899,-0.065681,0.079433,-0.082690,0.027137,-12.891279,-29.030712,-4.331360,,,,,,,
1504198842.612599,-0.821809,1.498416,0.342105,1.654602,-1.412552,0.906081,-0.052964,-0.997382,-0.049241,0.042069,-0.106271,0.015397,-13.564573,-29.035992,-3.208008,,,,,,,
1504198842.622609,-1.126817,1.500815,0.633046,1.896765,-1.499878,0.986710,-0.063145,-0.997552,-0.030035,0.044514,-0.112540,-0.005335,-13.564573,-29.035992,-3.208008,,,,,,,
1504198842.632618,-1.458593,1.496056,0.949939,2.124744,-1.599919,1.110033,-0.074201,-0.997208,-0.008361,0.077817,-0.108718,0.003981,-13.863935,-28.440182,-1.788208,,,,,,,
1504198842.642628,-1.752587,1.483073,1.228646,2.342761,-1.613561,1.229983,-0.086167,-0.996155,0.015839,0.097870,-0.126007,-0.024338,-13.863935,-28.440182,-1.788208,,,,,,,
1504198842.652638,-1.970144,1.463868,1.431261,2.447300,-1.586765,1.277083,-0.098327,-0.994289,0.041496,0.107329,-0.176869,-0.034935,-14.461332,-28.446316,-0.064667,,,,,,,
1504198842.662648,-2.119019,1.441115,1.564314,2.403605,-1.678107,1.334808,-0.110367,-0.991603,0.067397,0.072037,-0.211003,-0.019561,-14.461332,-28.446316,-0.064667,,,,,,,
1504198842.672658,-2.220501,1.416417,1.649910,2.397278,-1.669528,1.333715,-0.122439,-0.988107,0.093022,0.007708,-0.178351,-0.073155,-14.984938,-27.927258,1.730133,,,,,,,
1504198842.682667,-2.293308,1.392772,1.708640,2.195400,-1.405548,1.159980,-0.132840,-0.984195,0.117102,0.047803,-0.105633,0.053843,-14.984938,-27.927258,1.730133,,,,,,,
1504198842.692677,-2.347065,1.370907,1.751533,2.039605,-1.091904,1.024664,-0.141680,-0.980089,0.139116,0.068453,-0.018599,0.155943,-15.658476,-27.259472,3.823456,,,,,,,
1504198842.702687,-2.386174,1.349989,1.782275,1.919010,-0.848986,0.992005,-0.150157,-0.975721,0.159441,0.016078,0.096418,0.141645,-15.658476,-27.259472,3.823456,,,,,,,
1504198842.712697,-2.409882,1.331093,1.798915,1.547533,-0.728726,1.007160,-0.158627,-0.971408,0.176644,-0.015628,0.092029,0.117164,-16.107862,-26.739040,5.093414,,,,,,,
1504198842.722706,-2.421216,1.315172,1.801786,1.111404,-0.960638,1.013218,-0.166797,-0.967506,0.190031,-0.079389,0.058524,0.060228,-16.107862,-26.739040,5.093414,,,,,,,
1504198842.732716,-2.424000,1.301235,1.791914,0.827278,-1.193918,1.131619,-0.175117,-0.963888,0.200634,-0.114480,0.071340,-0.021908,-16.557447,-26.143597,6.362823,,,,,,,
1504198842.742726,-2.422240,1.289993,1.780883,0.618166,-0.783863,0.930929,-0.182599,-0.960833,0.208464,-0.103824,-0.011045,-0.097975,-16.557447,-26.143597,6.362823,,,,,,,
1504198842.752736,-2.416060,1.281359,1.770535,0.404867,-0.218216,0.749171,-0.189381,-0.958405,0.213531,-0.021404,0.029160,0.133103,-16.707731,-25.620617,7.033569,,,,,,,
1504198842.762715,-2.406229,1.274583,1.761390,0.306374,0.192986,0.619119,-0.195824,-0.956449,0.216470,-0.098641,0.155347,0.252372,-16.707731,-25.620617,7.033569,,,,,,,
1504198842.772725,-2.394339,1.269002,1.752616,0.187549,0.369857,0.553490,-0.202008,-0.954805,0.218038,-0.116489,0.144716,0.303996,-17.158262,-25.098690,7.553497,,,,,,,
1504198842.782734,-2.380898,1.265387,1.743029,0.040496,0.443667,0.420747,-0.207299,-0.953724,0.217803,-0.193275,0.117206,0.303773,-17.158262,-25.098690,7.553497,,,,,,,
1504198842.792744,-2.365687,1.263059,1.731234,-0.090954,0.413852,0.416302,-0.212142,-0.953021,0.216209,-0.222428,0.142825,0.317834,-17.383711,-25.099102,7.252930,,,,,,,
1504198842.802754,-2.349324,1.259728,1.717805,-0.047708,0.309979,0.563862,-0.217910,-0.952007,0.214936,-0.173371,0.152935,0.264205,-17.383711,-25.099102,7.252930,,,,,,,
1504198842.812764,-2.334010,1.257333,1.703429,-0.203185,0.127055,0.425153,-0.222823,-0.951271,0.213149,-0.106996,0.075783,0.228959,-17.908888,-25.026455,7.251068,,,,,,,
1504198842.822773,-2.319901,1.258758,1.688132,-0.526796,-0.088437,0.145313,-0.224815,-0.951710,0.209061,-0.032341,0.010456,0.043319,-17.908888,-25.026455,7.251068,,,,,,,
1504198842.832783,-2.304841,1.264508,1.670812,-0.850249,-0.151548,-0.135863,-0.223871,-0.953459,0.201983,0.093500,0.031432,-0.042528,-18.059492,-24.876842,7.099579,,,,,,,
1504198842.842793,-2.289152,1.273372,1.653730,-0.990906,-0.017995,-0.386115,-0.220640,-0.956095,0.192876,0.130095,0.109018,-0.029973,-18.059492,-24.876842,7.099579,,,,,,,
1504198842.852803,-2.274607,1.284092,1.640253,-0.987852,0.226232,-0.607492,-0.215596,-0.959181,0.183003,0.125676,0.239287,0.112529,-18.060255,-24.801083,6.723999,,,,,,,
1504198842.862813,-2.261406,1.295394,1.630586,-0.907665,0.449456,-0.711285,-0.209622,-0.962316,0.173224,0.008221,0.336400,0.274881,-18.060255,-24.801083,6.723999,,,,,,,
1504198842.872822,-2.251722,1.305649,1.626610,-0.658675,0.622180,-0.727169,-0.203612,-0.965054,0.164965,-0.116792,0.287487,0.313169,-17.909239,-25.474514,6.279449,,,,,,,
1504198842.882832,-2.248689,1.314149,1.630036,-0.414386,0.623354,-0.717141,-0.197714,-0.967246,0.159196,-0.145822,0.158531,0.313476,-17.909239,-25.474514,6.279449,,,,,,,
1504198842.892842,-2.251851,1.322518,1.639617,-0.323368,0.593951,-0.830076,-0.190914,-0.969337,0.154718,-0.091343,-0.001381,0.295111,-17.159910,-25.694500,5.457977,,,,,,,
1504198842.902852,-2.261196,1.331364,1.654720,-0.263723,0.512588,-0.939772,-0.182842,-0.971473,0.151029,-0.011998,-0.025201,0.208606,-17.159910,-25.694500,5.457977,,,,,,,
1504198842.912861,-2.276387,1.340557,1.675403,-0.204714,0.493022,-1.036769,-0.173720,-0.973612,0.147991,0.042983,0.052500,0.119694,-17.159346,-26.143764,5.086304,,,,,,,
1504198842.922871,-2.297343,1.349634,1.702485,-0.112170,0.561574,-1.084762,-0.163969,-0.975643,0.145722,0.045072,0.088634,0.091232,-17.159346,-26.143764,5.086304,,,,,,,
1504198842.932881,-2.323872,1.357560,1.735186,0.023937,0.527380,-1.047107,-0.154399,-0.977351,0.144727,0.025172,0.077571,0.129382,-16.258696,-26.589123,4.791931,,,,,,,
1504198842.942891,-2.356514,1.363586,1.773047,0.189971,0.400176,-0.954799,-0.145427,-0.978609,0.145520,-0.025929,-0.008986,0.163730,-16.258696,-26.589123,4.791931,,,,,,,
1504198842.952900,-2.392842,1.367612,1.812928,0.292571,0.227648,-0.837970,-0.137362,-0.979429,0.147818,-0.056684,-0.056368,0.143457,-16.033430,-26.737957,4.718597,,,,,,,
1504198842.962910,-2.430069,1.370714,1.852183,0.284791,0.091256,-0.780103,-0.129781,-0.980050,0.150527,-0.031168,-0.054740,0.090867,-16.033430,-26.737957,4.718597,,,,,,,
