timestamp(unix),attitude_roll(radians),attitude_pitch(radians),attitude_yaw(radians),rotation_rate_x(radians/s),rotation_rate_y(radians/s),rotation_rate_z(radians/s),gravity_x(G),gravity_y(G),gravity_z(G),user_acc_x(G),user_acc_y(G),user_acc_z(G),magnetic_field_x(microteslas),magnetic_field_y(microteslas),magnetic_field_z(microteslas),latitude(degree),longitude(degree),altitude(meter),speed(m/s),course(degree),timestamp(unix),User Mark
1504199500.540208,0.025098,0.705249,0.456062,0.441851,-0.275553,0.112028,0.019109,-0.648224,-0.761210,0.045298,0.138717,-0.166112,18.449923,-10.614316,-29.516144,,,,,,,
1504199500.550218,0.021176,0.708867,0.456864,0.330532,-0.355563,0.055404,0.016074,-0.650974,-0.758930,0.050455,0.128559,-0.142590,18.449923,-10.614316,-29.516144,,,,,,,
1504199500.560228,0.017387,0.711266,0.457067,0.211213,-0.361992,0.009310,0.013170,-0.652793,-0.757421,0.057722,0.118415,-0.130762,18.450136,-10.838864,-29.739441,,,,,,,
1504199500.570238,0.014156,0.712752,0.456925,0.132713,-0.318699,-0.012251,0.010710,-0.653918,-0.756490,0.074633,0.123339,-0.119029,18.450136,-10.838864,-29.739441,,,,,,,
1504199500.580248,0.011588,0.713815,0.456679,0.099099,-0.256610,-0.018823,0.008759,-0.654722,-0.755819,0.081131,0.123670,-0.081675,18.150331,-10.915204,-29.739624,,,,,,,
1504199500.590257,0.009553,0.714631,0.456445,0.072800,-0.208444,-0.016818,0.007216,-0.655339,-0.755300,0.083345,0.105595,-0.046534,18.150331,-10.915204,-29.739624,,,,,,,
1504199500.600267,0.007919,0.714970,0.456118,0.017559,-0.184535,-0.026563,0.005980,-0.655595,-0.755089,0.080705,0.095704,-0.038231,18.225405,-10.989728,-29.813873,,,,,,,
1504199500.610277,0.006593,0.714612,0.455647,-0.055791,-0.158344,-0.038478,0.004980,-0.655324,-0.755331,0.058908,0.115606,-0.046198,18.225405,-10.989728,-29.813873,,,,,,,
1504199500.620287,0.005676,0.713391,0.455011,-0.147197,-0.124541,-0.054707,0.004292,-0.654402,-0.756135,0.051113,0.112470,-0.043654,18.300890,-11.139539,-29.737579,,,,,,,
1504199500.630296,0.005178,0.711094,0.454097,-0.254716,-0.107649,-0.076271,0.003923,-0.652663,-0.757638,0.055418,0.113097,-0.036811,18.300890,-11.139539,-29.737579,,,,,,,
1504199500.640306,0.004946,0.707906,0.452815,-0.333482,-0.104835,-0.109502,0.003758,-0.650244,-0.759716,0.057918,0.110876,-0.040607,18.000597,-11.065732,-29.813873,,,,,,,
1504199500.650316,0.004753,0.704171,0.451132,-0.381538,-0.128917,-0.139430,0.003622,-0.647402,-0.762140,0.051523,0.097994,-0.028220,18.000597,-11.065732,-29.813873,,,,,,,
1504199500.660326,0.005055,0.700033,0.449000,-0.420582,-0.095527,-0.172646,0.003866,-0.644243,-0.764811,0.038965,0.102235,-0.028127,17.924700,-10.616376,-29.667419,,,,,,,
1504199500.670335,0.006256,0.695658,0.446518,-0.440063,-0.013287,-0.199510,0.004802,-0.640891,-0.767617,0.036625,0.091635,-0.024589,17.924578,-10.616223,-29.742432,,,,,,,
1504199500.680345,0.008638,0.691219,0.443851,-0.440131,0.105006,-0.210392,0.006655,-0.637477,-0.770441,0.032682,0.118495,-0.022147,17.924578,-10.616223,-29.742432,,,,,,,
1504199500.690355,0.013469,0.683759,0.440686,-0.420541,0.287071,-0.217085,0.010441,-0.631711,-0.775133,0.023723,0.151761,-0.016142,17.924578,-10.616223,-29.742432,,,,,,,
1504199500.700365,0.019098,0.680063,0.437990,-0.340410,0.435593,-0.215073,0.014848,-0.628842,-0.777391,0.029036,0.176968,-0.012312,17.848711,-10.316403,-29.819855,,,,,,,
1504199500.710375,0.026382,0.677597,0.435103,-0.210029,0.582659,-0.236455,0.020551,-0.626923,-0.778811,0.017779,0.154159,-0.015165,17.848711,-10.316403,-29.819855,,,,,,,
1504199500.720384,0.034649,0.676593,0.431947,-0.050498,0.643166,-0.251229,0.027011,-0.626140,-0.779243,0.013379,0.162563,-0.015923,18.072542,-9.940091,-29.972107,,,,,,,
1504199500.730394,0.042086,0.674686,0.429112,0.104667,0.577921,-0.239099,0.032855,-0.624653,-0.780211,-0.005801,0.131366,-0.068116,18.072542,-9.940091,-29.972107,,,,,,,
1504199500.740404,0.048820,0.676637,0.426138,0.240164,0.457435,-0.217304,0.038049,-0.626174,-0.778754,-0.008187,0.120056,-0.110665,18.747499,-9.787503,-29.746613,,,,,,,
1504199500.750414,0.054084,0.680119,0.423465,0.397943,0.331422,-0.179449,0.042030,-0.628886,-0.776361,-0.002219,0.149882,-0.137915,18.747499,-9.787503,-29.746613,,,,,,,
1504199500.760393,0.058135,0.685310,0.421278,0.568816,0.251105,-0.126709,0.044984,-0.632913,-0.772915,-0.013932,0.178629,-0.124348,18.898211,-9.937284,-29.520111,,,,,,,
1504199500.770403,0.060185,0.689200,0.420368,0.704893,0.219005,-0.085847,0.046420,-0.635920,-0.770358,-0.034168,0.190790,-0.092405,18.898211,-9.937284,-29.520111,,,,,,,
1504199500.780412,0.063258,0.696995,0.418819,0.802905,0.210722,-0.069652,0.048473,-0.641916,-0.765241,-0.038188,0.186335,-0.085986,19.423922,-10.085370,-29.292664,,,,,,,
1504199500.790422,0.066727,0.705329,0.417013,0.850117,0.232730,-0.087754,0.050768,-0.648284,-0.759704,-0.022753,0.173278,-0.094163,19.423922,-10.085370,-29.292664,,,,,,,
1504199500.800432,0.070174,0.713930,0.415140,0.868083,0.216589,-0.079156,0.052994,-0.654809,-0.753934,0.007797,0.184564,-0.114657,19.350588,-10.611157,-29.063904,,,,,,,
1504199500.810442,0.072951,0.721587,0.413571,0.856922,0.169767,-0.057743,0.054720,-0.660577,-0.748761,0.002974,0.163354,-0.130420,19.350588,-10.611157,-29.063904,,,,,,,
1504199500.820451,0.075060,0.729872,0.412233,0.825344,0.106065,-0.032068,0.055886,-0.666774,-0.743161,0.006751,0.124080,-0.133685,19.576601,-10.835752,-28.761658,,,,,,,
1504199500.830461,0.076520,0.737851,0.411337,0.791931,0.084992,0.002068,0.056563,-0.672699,-0.737751,0.024110,0.111206,-0.125149,19.652422,-11.210263,-28.833618,,,,,,,
1504199500.840471,0.078004,0.745551,0.410977,0.761256,0.144874,0.044606,0.057253,-0.678377,-0.732480,0.032713,0.104341,-0.090991,19.652422,-11.210263,-28.833618,,,,,,,
1504199500.850481,0.079928,0.753097,0.411277,0.743621,0.237677,0.092444,0.058251,-0.683901,-0.727245,0.031898,0.118411,-0.047733,19.504992,-11.961835,-28.378387,,,,,,,
1504199500.860490,0.082620,0.760323,0.412089,0.701681,0.349877,0.124196,0.059800,-0.689155,-0.722142,0.030502,0.127037,-0.021755,19.504992,-11.961835,-28.378387,,,,,,,
1504199500.870500,0.085695,0.766870,0.413168,0.614395,0.380424,0.132530,0.061632,-0.693885,-0.717444,0.042143,0.116233,-0.030542,19.807024,-12.411679,-27.774261,,,,,,,
1504199500.880510,0.088443,0.772376,0.414277,0.511587,0.327999,0.124973,0.063265,-0.697839,-0.713455,0.059126,0.113671,-0.075302,19.807024,-12.411679,-27.774261,,,,,,,
1504199500.890520,0.090010,0.776941,0.415365,0.428444,0.197626,0.114384,0.064096,-0.701101,-0.710175,0.075598,0.083395,-0.116317,20.031115,-12.185224,-28.000397,,,,,,,
1504199500.900530,0.090443,0.780987,0.416354,0.390251,0.086062,0.105976,0.064147,-0.703981,-0.707316,0.090959,0.050752,-0.131093,20.031115,-12.185224,-28.000397,,,,,,,
1504199500.910539,0.089985,0.784857,0.417386,0.373632,0.010539,0.108215,0.063577,-0.706724,-0.704627,0.097723,0.036390,-0.111429,20.108263,-12.860486,-27.695129,,,,,,,
1504199500.920549,0.089106,0.788718,0.418587,0.379843,-0.003382,0.124261,0.062715,-0.709451,-0.701959,0.099700,0.036584,-0.103247,20.108263,-12.860486,-27.695129,,,,,,,
1504199500.930559,0.088122,0.792803,0.420296,0.401226,0.029430,0.168004,0.061769,-0.712323,-0.699128,0.104781,0.034970,-0.088622,20.258593,-12.860257,-27.469788,,,,,,,
1504199500.940569,0.086779,0.797022,0.422844,0.402149,0.050669,0.230945,0.060568,-0.715278,-0.696211,0.094461,0.044028,-0.059405,20.258593,-12.860257,-27.469788,,,,,,,
1504199500.950578,0.084745,0.800949,0.426385,0.357018,0.049910,0.293845,0.058914,-0.718017,-0.693527,0.091583,0.056884,-0.061783,19.809282,-13.311688,-27.767517,,,,,,,
1504199500.960588,0.081983,0.804302,0.430806,0.294780,0.038646,0.347127,0.056801,-0.720346,-0.691285,0.097176,0.077585,-0.077422,19.809282,-13.311688,-27.767517,,,,,,,
1504199500.970598,0.078799,0.807252,0.435928,0.255287,0.059180,0.383314,0.054432,-0.722390,-0.689341,0.081813,0.110726,-0.082480,19.885637,-13.537396,-27.240631,,,,,,,
1504199500.980608,0.075679,0.809992,0.441239,0.240459,0.074218,0.385396,0.052131,-0.724282,-0.687531,0.055505,0.129692,-0.071197,19.885637,-13.537396,-27.240631,,,,,,,
1504199500.990576,0.072650,0.812584,0.446397,0.229813,0.065800,0.367247,0.049912,-0.726066,-0.685811,0.047943,0.146919,-0.076091,19.810823,-13.612744,-27.240265,,,,,,,
1504199501.000586,0.069549,0.815111,0.451159,0.227512,0.024295,0.334227,0.047657,-0.727801,-0.684130,0.040493,0.140155,-0.100553,19.810823,-13.612744,-27.240265,,,,,,,
1504199501.010595,0.066370,0.817635,0.455343,0.233743,-0.023664,0.291626,0.045360,-0.729530,-0.682443,0.038594,0.121834,-0.122596,19.661577,-13.913419,-27.238373,,,,,,,
1504199501.020605,0.063203,0.820186,0.458945,0.237909,-0.060953,0.252205,0.043081,-0.731273,-0.680723,0.043802,0.108607,-0.130647,19.661577,-13.913419,-27.238373,,,,,,,
1504199501.030615,0.060153,0.822826,0.462065,0.255005,-0.077046,0.221308,0.040889,-0.733071,-0.678922,0.050023,0.105858,-0.127917,19.886950,-14.062406,-27.236694,,,,,,,
1504199501.040625,0.057486,0.825633,0.464931,0.273467,-0.045216,0.207408,0.038959,-0.734977,-0.676972,0.047863,0.112281,-0.114959,19.886950,-14.062406,-27.236694,,,,,,,
1504199501.050635,0.055642,0.828623,0.467530,0.293351,0.027102,0.187034,0.037588,-0.737001,-0.674845,0.034982,0.124971,-0.092977,19.662294,-14.288114,-27.385559,,,,,,,
1504199501.060644,0.055166,0.831774,0.469675,0.312570,0.140999,0.152710,0.037139,-0.739128,-0.672541,0.031327,0.133705,-0.077566,19.662294,-14.288114,-27.385559,,,,,,,
1504199501.070654,0.055997,0.835217,0.471364,0.347530,0.225988,0.124868,0.037556,-0.741442,-0.669965,0.035504,0.124545,-0.066745,19.514330,-14.739987,-26.782501,,,,,,,
1504199501.080664,0.057761,0.839042,0.472620,0.385446,0.281115,0.098152,0.038573,-0.744003,-0.667062,0.030610,0.112991,-0.064445,19.514330,-14.739987,-26.782501,,,,,,,
1504199501.090674,0.060157,0.843116,0.473414,0.408148,0.300138,0.069338,0.039989,-0.746720,-0.663936,0.030369,0.109268,-0.075017,19.739550,-14.739270,-26.631958,,,,,,,
1504199501.100683,0.062832,0.847326,0.473790,0.421035,0.294731,0.043752,0.041567,-0.749513,-0.660683,0.033735,0.110033,-0.093757,19.739550,-14.739270,-26.631958,,,,,,,
1504199501.110693,0.065731,0.851723,0.473734,0.446662,0.280695,0.017136,0.043265,-0.752416,-0.657265,0.029687,0.122259,-0.103309,19.666246,-15.190366,-26.253784,,,,,,,
1504199501.120703,0.068974,0.856589,0.473000,0.507631,0.270651,-0.029706,0.045143,-0.755613,-0.653461,0.026985,0.133558,-0.092556,19.666246,-15.190366,-26.253784,,,,,,,
1504199501.130713,0.073476,0.859617,0.470834,0.587042,0.281797,-0.109643,0.047917,-0.757593,-0.650966,0.019741,0.150385,-0.064244,19.891314,-15.264203,-26.327667,,,,,,,
1504199501.140722,0.078055,0.865482,0.467619,0.604696,0.174105,-0.185208,0.050550,-0.761408,-0.646300,0.003451,0.168848,-0.020158,19.891314,-15.264203,-26.327667,,,,,,,
1504199501.150732,0.081676,0.870764,0.463111,0.523386,-0.040388,-0.270363,0.052561,-0.764821,-0.642095,0.045141,0.103353,-0.022227,20.042833,-15.639279,-25.949493,,,,,,,
1504199501.160742,0.083926,0.874809,0.457389,0.397162,-0.268363,-0.356639,0.053745,-0.767421,-0.638887,0.082973,0.098521,-0.102660,20.042833,-15.639279,-25.949493,,,,,,,
1504199501.170752,0.084932,0.877346,0.450646,0.249682,-0.472741,-0.421646,0.054223,-0.769045,-0.636891,0.105293,0.078600,-0.108562,20.043657,-15.789868,-25.648346,,,,,,,
1504199501.180761,0.088313,0.874917,0.440129,0.080599,-0.696083,-0.471729,0.056540,-0.767490,-0.638563,0.086023,0.097797,-0.079928,20.043657,-15.789868,-25.648346,,,,,,,
1504199501.190771,0.085432,0.873934,0.432373,-0.100417,-0.942835,-0.512169,0.054765,-0.766860,-0.639474,0.073577,0.070037,-0.088202,19.667299,-15.565518,-26.175934,,,,,,,
1504199501.200781,0.080409,0.871277,0.424606,-0.259880,-1.140783,-0.517433,0.051716,-0.765152,-0.641770,0.107464,0.074569,-0.119445,19.667299,-15.565518,-26.175934,,,,,,,
1504199501.210791,0.074075,0.867393,0.417411,-0.374553,-1.181436,-0.480201,0.047869,-0.762645,-0.645043,0.106031,0.080303,-0.137260,19.591127,-15.414807,-26.702271,,,,,,,
1504199501.220801,0.068510,0.862377,0.410694,-0.445263,-1.048770,-0.423988,0.044540,-0.759391,-0.649108,0.093521,0.085975,-0.090546,19.591127,-15.414807,-26.702271,,,,,,,
1504199501.230780,0.063735,0.857256,0.405534,-0.506603,-0.801123,-0.349813,0.041687,-0.756049,-0.653186,0.091201,0.082297,-0.013638,19.139101,-14.741376,-26.933441,,,,,,,
1504199501.240790,0.060358,0.851456,0.401777,-0.584165,-0.569345,-0.257492,0.039745,-0.752240,-0.657689,0.101887,0.057538,0.027318,19.139101,-14.741376,-26.933441,,,,,,,
1504199501.250799,0.057092,0.844805,0.399722,-0.679893,-0.463177,-0.146835,0.037881,-0.747842,-0.662795,0.114081,0.025857,-0.000276,19.137743,-14.739575,-27.833496,,,,,,,
1504199501.260809,0.053643,0.837173,0.398741,-0.760160,-0.435963,-0.054160,0.035900,-0.742754,-0.668602,0.122791,0.026933,-0.068367,19.137743,-14.739575,-27.833496,,,,,,,
1504199501.270819,0.049238,0.829182,0.399212,-0.808170,-0.400462,0.002266,0.033246,-0.737379,-0.674661,0.122363,0.068525,-0.102225,18.836626,-14.290921,-27.837616,,,,,,,
1504199501.280829,0.044977,0.820921,0.400038,-0.832376,-0.350193,0.016012,0.030644,-0.731774,-0.680858,0.086895,0.100365,-0.075169,18.836626,-14.290921,-27.837616,,,,,,,
1504199501.290838,0.041399,0.812734,0.400539,-0.811665,-0.309847,-0.007506,0.028455,-0.726170,-0.686926,0.062991,0.093250,-0.057687,18.609819,-13.841046,-28.291504,,,,,,,
1504199501.300848,0.039068,0.804810,0.400332,-0.760772,-0.238829,-0.043836,0.027077,-0.720699,-0.692719,0.060463,0.097209,-0.024581,18.609819,-13.841046,-28.291504,,,,,,,
1504199501.310858,0.037993,0.797576,0.399670,-0.707339,-0.119880,-0.084515,0.026530,-0.715665,-0.697939,0.047979,0.087613,0.010745,18.533083,-13.241071,-28.446198,,,,,,,
1504199501.320868,0.038860,0.790774,0.398420,-0.665346,0.037523,-0.123146,0.027324,-0.710898,-0.702765,0.041143,0.075674,0.034521,18.533083,-13.241071,-28.446198,,,,,,,
1504199501.330877,0.041583,0.784382,0.396731,-0.621359,0.185306,-0.148948,0.029425,-0.706388,-0.707213,0.040644,0.087079,0.044280,18.533083,-13.241071,-28.446198,,,,,,,
1504199501.340887,0.045467,0.778530,0.394934,-0.566135,0.283956,-0.153296,0.032359,-0.702234,-0.711211,0.039754,0.113351,0.040388,18.831423,-12.938535,-29.047760,,,,,,,
1504199501.350897,0.049941,0.773055,0.393110,-0.534845,0.324197,-0.158650,0.035732,-0.698325,-0.714888,0.035450,0.131690,0.024885,18.606356,-12.864697,-28.973877,,,,,,,
1504199501.360907,0.055117,0.766544,0.390562,-0.524390,0.285781,-0.179915,0.039682,-0.693650,-0.719219,0.041709,0.141587,-0.015843,18.606356,-12.864697,-28.973877,,,,,,,
1504199501.370916,0.058923,0.761166,0.388255,-0.529236,0.199531,-0.202187,0.042638,-0.689766,-0.722776,0.056178,0.132744,-0.068576,18.979876,-12.412549,-29.201324,,,,,,,
1504199501.380926,0.061979,0.755681,0.385737,-0.536224,0.108865,-0.218053,0.045080,-0.685784,-0.726407,0.055796,0.106378,-0.096881,18.979876,-12.412549,-29.201324,,,,,,,
1504199501.390936,0.064093,0.750091,0.383219,-0.549768,0.016270,-0.217913,0.046860,-0.681705,-0.730125,0.052994,0.122501,-0.102029,18.979021,-12.112409,-29.278564,,,,,,,
1504199501.400946,0.067335,0.735440,0.379323,-0.581625,-0.084681,-0.215668,0.049894,-0.670914,-0.739855,0.036272,0.127258,-0.098982,18.979021,-12.112409,-29.278564,,,,,,,
1504199501.410956,0.067354,0.729112,0.376853,-0.631471,-0.188686,-0.228379,0.050192,-0.666208,-0.744075,0.029184,0.106195,-0.108433,19.352129,-11.360715,-29.283295,,,,,,,
1504199501.420965,0.066273,0.722228,0.374436,-0.691014,-0.293695,-0.224028,0.049690,-0.661058,-0.748688,0.042107,0.102480,-0.120743,19.352129,-11.360715,-29.283295,,,,,,,
1504199501.430975,0.063948,0.714671,0.372391,-0.763367,-0.383706,-0.194107,0.048268,-0.655369,-0.753765,0.046352,0.111790,-0.136189,19.500887,-11.134137,-29.734619,,,,,,,
1504199501.440985,0.060906,0.706178,0.370846,-0.825662,-0.410938,-0.155741,0.046312,-0.648931,-0.759437,0.040816,0.126409,-0.146813,19.500887,-11.134137,-29.734619,,,,,,,
1504199501.450995,0.057685,0.697556,0.369841,-0.862907,-0.375505,-0.118509,0.044186,-0.642346,-0.765140,0.031376,0.141232,-0.132748,18.974459,-10.835599,-30.188141,,,,,,,
1504199501.461004,0.054780,0.688864,0.369182,-0.862575,-0.317992,-0.092992,0.042267,-0.635661,-0.770811,0.017044,0.138789,-0.109561,18.974459,-10.835599,-30.188141,,,,,,,
1504199501.470984,0.052266,0.680397,0.368653,-0.835603,-0.276662,-0.086614,0.040609,-0.629102,-0.776261,0.003077,0.122251,-0.090224,19.047991,-10.384824,-30.416351,,,,,,,
1504199501.480993,0.049891,0.671537,0.368056,-0.792840,-0.269550,-0.094024,0.039042,-0.622190,-0.781892,0.004247,0.113600,-0.095961,19.047991,-10.384824,-30.416351,,,,,,,
1504199501.491003,0.047557,0.664021,0.367385,-0.732120,-0.277516,-0.087500,0.037438,-0.616289,-0.786630,0.008979,0.117128,-0.112845,18.670839,-9.710904,-30.722351,,,,,,,
1504199501.501013,0.045034,0.657202,0.366772,-0.656571,-0.296264,-0.076662,0.035642,-0.610904,-0.790902,-0.003293,0.145328,-0.121177,18.670839,-9.710904,-30.722351,,,,,,,
1504199501.511023,0.042275,0.651255,0.366039,-0.567169,-0.331088,-0.088187,0.033612,-0.606185,-0.794613,-0.018674,0.163116,-0.127110,18.819933,-9.484784,-30.948669,,,,,,,
1504199501.521032,0.037794,0.642680,0.365667,-0.467313,-0.404360,-0.126307,0.030247,-0.599343,-0.799921,-0.023075,0.149407,-0.130163,18.819933,-9.484784,-30.948669,,,,,,,
1504199501.531042,0.034156,0.638570,0.363717,-0.387787,-0.504052,-0.186836,0.027420,-0.596048,-0.802480,-0.019257,0.130533,-0.140101,18.293734,-9.186536,-31.252228,,,,,,,
1504199501.541052,0.030093,0.635064,0.361048,-0.329507,-0.585466,-0.236759,0.024222,-0.593229,-0.804669,-0.009650,0.115873,-0.161594,18.293734,-9.186536,-31.252228,,,,,,,
1504199501.551062,0.025578,0.632173,0.357924,-0.269060,-0.648805,-0.264295,0.020633,-0.590899,-0.806482,-0.005954,0.117648,-0.167212,18.067568,-9.036511,-31.778931,,,,,,,
1504199501.561072,0.020597,0.629112,0.354735,-0.226597,-0.677924,-0.269507,0.016653,-0.588427,-0.808379,-0.008047,0.125872,-0.155458,18.067568,-9.036511,-31.778931,,,,,,,
1504199501.571081,0.015594,0.626998,0.351483,-0.201146,-0.694123,-0.264097,0.012627,-0.586716,-0.809694,-0.008340,0.121568,-0.139189,17.841784,-8.587964,-31.557831,,,,,,,
1504199501.581091,0.010223,0.625073,0.348437,-0.187600,-0.721961,-0.243744,0.008290,-0.585157,-0.810878,-0.000950,0.136029,-0.133061,17.841784,-8.587964,-31.557831,,,,,,,
1504199501.591101,0.004309,0.623181,0.345600,-0.188072,-0.770992,-0.227647,0.003499,-0.583621,-0.812019,0.001186,0.149447,-0.134698,17.391222,-8.589231,-31.933960,,,,,,,
1504199501.601111,-0.002401,0.620845,0.342751,-0.190850,-0.856209,-0.236041,-0.001953,-0.581723,-0.813385,0.003403,0.152066,-0.145020,17.391222,-8.589231,-31.933960,,,,,,,
1504199501.611120,-0.009717,0.618958,0.339475,-0.189221,-0.944625,-0.276444,-0.007915,-0.580187,-0.814445,0.007457,0.141405,-0.155755,16.940325,-8.365811,-32.161743,,,,,,,
1504199501.621130,-0.017559,0.617072,0.335664,-0.192870,-1.026603,-0.317934,-0.014320,-0.578649,-0.815451,0.015632,0.119207,-0.155802,16.940325,-8.365811,-32.161743,,,,,,,
1504199501.631140,-0.025963,0.615123,0.331386,-0.206150,-1.107443,-0.351971,-0.021202,-0.577059,-0.816427,0.011833,0.093019,-0.151209,16.413713,-8.216519,-32.989197,,,,,,,
1504199501.641150,-0.035063,0.612758,0.326804,-0.253712,-1.196542,-0.371110,-0.028678,-0.575126,-0.817562,0.008261,0.082847,-0.148884,16.413713,-8.216519,-32.989197,,,,,,,
1504199501.651159,-0.044952,0.609857,0.321979,-0.322675,-1.290797,-0.386007,-0.036836,-0.572750,-0.818902,0.012163,0.085201,-0.155463,15.812883,-8.068631,-33.291809,,,,,,,
1504199501.661169,-0.055752,0.606373,0.316916,-0.384222,-1.391506,-0.400880,-0.045789,-0.569891,-0.820444,0.022305,0.096578,-0.163657,15.812883,-8.068631,-33.291809,,,,,,,
1504199501.671179,-0.067205,0.602519,0.311593,-0.418841,-1.460470,-0.415762,-0.055330,-0.566719,-0.822051,0.031053,0.097496,-0.158891,15.061953,-7.921247,-33.669800,,,,,,,
1504199501.681189,-0.078652,0.598547,0.306081,-0.418714,-1.449805,-0.424320,-0.064912,-0.563443,-0.823601,0.033585,0.083081,-0.135337,15.061953,-7.921247,-33.669800,,,,,,,
1504199501.691198,-0.089524,0.594988,0.300573,-0.381840,-1.374452,-0.423321,-0.074041,-0.560498,-0.824839,0.030141,0.101972,-0.099691,14.535372,-7.473004,-33.974487,,,,,,,
1504199501.701208,-0.099394,0.592068,0.295105,-0.313733,-1.263125,-0.423400,-0.082340,-0.558078,-0.825693,0.019337,0.113284,-0.069952,14.535372,-7.473004,-33.974487,,,,,,,
1504199501.711187,-0.108150,0.590134,0.289739,-0.212496,-1.143548,-0.421300,-0.089683,-0.556472,-0.826012,0.008964,0.094574,-0.045174,13.408266,-6.952024,-34.506195,,,,,,,
1504199501.721197,-0.115711,0.589162,0.284629,-0.105789,-1.001648,-0.410692,-0.095988,-0.555665,-0.825847,0.001475,0.091721,-0.022114,13.408266,-6.952024,-34.506195,,,,,,,
1504199501.731207,-0.121717,0.589309,0.279709,-0.010546,-0.829810,-0.406560,-0.100937,-0.555787,-0.825174,-0.009842,0.092530,-0.002997,12.807970,-6.879560,-34.583252,,,,,,,
1504199501.741217,-0.126207,0.590272,0.274990,0.063204,-0.675912,-0.400299,-0.104574,-0.556587,-0.824182,-0.016154,0.090858,0.014169,12.807970,-6.879560,-34.583252,,,,,,,
1504199501.751227,-0.129643,0.591628,0.270238,0.086351,-0.591905,-0.414283,-0.107307,-0.557713,-0.823068,-0.017525,0.130772,0.015985,12.432711,-6.955655,-34.883606,,,,,,,
1504199501.761236,-0.133015,0.592380,0.265157,0.072380,-0.626918,-0.451605,-0.110026,-0.558337,-0.822286,-0.011327,0.153445,-0.004893,12.432711,-6.955655,-34.883606,,,,,,,
1504199501.771246,-0.136709,0.593464,0.259256,0.029246,-0.724530,-0.516619,-0.112980,-0.559236,-0.821274,-0.000606,0.149980,-0.038285,12.131701,-6.731397,-35.186035,,,,,,,
1504199501.781256,-0.140840,0.594101,0.252278,-0.034102,-0.828347,-0.603005,-0.116322,-0.559764,-0.820447,0.009266,0.128261,-0.056994,12.131701,-6.731397,-35.186035,,,,,,,
1504199501.791266,-0.145228,0.594167,0.244117,-0.106911,-0.915035,-0.690506,-0.119916,-0.559819,-0.819892,0.020032,0.124547,-0.063210,11.606707,-6.733762,-35.187347,,,,,,,
1504199501.801275,-0.149576,0.593483,0.234830,-0.172084,-0.975154,-0.769501,-0.123536,-0.559252,-0.819741,0.026139,0.143496,-0.057303,11.606707,-6.733762,-35.187347,,,,,,,
1504199501.811285,-0.153984,0.592394,0.224530,-0.259643,-1.031895,-0.846406,-0.127242,-0.558349,-0.819790,0.026732,0.166091,-0.033389,11.230242,-6.285001,-35.416656,,,,,,,
1504199501.821295,-0.158407,0.590462,0.212979,-0.368588,-1.104427,-0.939330,-0.131036,-0.556745,-0.820283,0.028635,0.171644,-0.022429,11.230242,-6.285001,-35.416656,,,,,,,
1504199501.831305,-0.162848,0.587540,0.200018,-0.491374,-1.180032,-1.042948,-0.134941,-0.554316,-0.821295,0.032311,0.162989,-0.023996,10.778658,-5.836423,-35.721161,,,,,,,
1504199501.841314,-0.167081,0.583505,0.185535,-0.620451,-1.241730,-1.146601,-0.138787,-0.550952,-0.822916,0.041360,0.146884,-0.013022,10.778658,-5.836423,-35.721161,,,,,,,
1504199501.851324,-0.171303,0.578435,0.169941,-0.749609,-1.289616,-1.211852,-0.142735,-0.546714,-0.825064,0.039967,0.122840,0.000219,9.877718,-5.465466,-35.726196,,,,,,,
1504199501.861334,-0.175783,0.572451,0.153812,-0.842698,-1.333587,-1.229014,-0.146999,-0.541694,-0.827622,0.031322,0.109062,0.007630,9.877718,-5.465466,-35.726196,,,,,,,
1504199501.871344,-0.180469,0.565805,0.137760,-0.906782,-1.326691,-1.204587,-0.151518,-0.536096,-0.830448,0.019713,0.119348,0.029056,9.274935,-4.492703,-35.959991,,,,,,,
1504199501.881354,-0.185024,0.558817,0.122223,-0.927874,-1.262636,-1.151366,-0.155985,-0.530184,-0.833411,0.009165,0.138323,0.060126,9.274935,-4.492703,-35.959991,,,,,,,
1504199501.891363,-0.188799,0.551647,0.107194,-0.948349,-1.131438,-1.114274,-0.159839,-0.524091,-0.836529,-0.006161,0.153440,0.090603,8.222963,-3.971524,-36.416504,,,,,,,
1504199501.901373,-0.191104,0.544146,0.091923,-0.995075,-0.992488,-1.149825,-0.162509,-0.517688,-0.839994,-0.009030,0.172092,0.112485,8.222963,-3.971524,-36.416504,,,,,,,
1504199501.911383,-0.191992,0.536247,0.075869,-1.049429,-0.892870,-1.216273,-0.164030,-0.510913,-0.843837,0.014754,0.155918,0.096798,7.845812,-3.073361,-36.349213,,,,,,,
1504199501.921393,-0.192201,0.528087,0.059086,-1.084158,-0.870145,-1.276148,-0.164998,-0.503882,-0.847867,0.009160,0.096213,0.086850,7.845812,-3.073361,-36.349213,,,,,,,
1504199501.931402,-0.192159,0.519680,0.041780,-1.121162,-0.853812,-1.317870,-0.165765,-0.496602,-0.852002,-0.012473,0.061590,0.097089,7.319124,-2.624967,-36.728882,,,,,,,
1504199501.941412,-0.191681,0.510970,0.024329,-1.149461,-0.792836,-1.322296,-0.166175,-0.489024,-0.856295,-0.023324,0.058436,0.109851,7.319124,-2.624967,-36.728882,,,,,,,
1504199501.951391,-0.190161,0.501944,0.006824,-1.185666,-0.659323,-1.336470,-0.165702,-0.481131,-0.860846,-0.043222,0.098975,0.129324,6.790514,-1.277020,-36.890289,,,,,,,
1504199501.961401,-0.187153,0.492699,-0.010973,-1.205643,-0.511003,-1.371991,-0.163932,-0.473005,-0.865674,-0.039391,0.125486,0.143888,6.790514,-1.277020,-36.890289,,,,,,,
1504199501.971411,-0.182549,0.483424,-0.029095,-1.204100,-0.342610,-1.411779,-0.160734,-0.464813,-0.870697,-0.025453,0.119431,0.144134,6.188707,-0.604566,-36.971863,,,,,,,
1504199501.981421,-0.176050,0.474131,-0.047438,-1.204513,-0.145440,-1.440947,-0.155822,-0.456566,-0.875938,-0.025025,0.101067,0.158317,6.188707,-0.604566,-36.971863,,,,,,,
1504199501.991418,-0.167770,0.464778,-0.065682,-1.197613,0.051637,-1.439148,-0.149270,-0.448224,-0.881370,-0.025367,0.106275,0.162986,6.336672,0.295810,-36.828217,,,,,,,
1504199502.001428,-0.158037,0.455300,-0.083473,-1.192114,0.224188,-1.409555,-0.141348,-0.439732,-0.886937,-0.035761,0.115681,0.158253,6.336672,0.295810,-36.828217,,,,,,,
1504199502.011438,-0.147513,0.445632,-0.100569,-1.190414,0.333880,-1.360645,-0.132624,-0.431028,-0.892539,-0.045476,0.130704,0.157020,6.409182,1.196429,-36.984802,,,,,,,
1504199502.021448,-0.136607,0.435925,-0.116791,-1.146278,0.426152,-1.291350,-0.123447,-0.422249,-0.898035,-0.049573,0.130425,0.136896,6.409182,1.196429,-36.984802,,,,,,,
1504199502.031457,-0.124557,0.429207,-0.130304,-0.757078,0.665677,-1.074416,-0.112967,-0.416150,-0.902251,-0.037744,0.146237,0.111343,6.557375,2.096515,-36.691193,,,,,,,
1504199502.041467,-0.111684,0.424910,-0.142081,-0.471437,0.816681,-0.986660,-0.101541,-0.412239,-0.905400,-0.014075,0.150413,0.000370,6.557375,2.096515,-36.691193,,,,,,,
1504199502.051477,-0.098670,0.424280,-0.151948,-0.027473,0.919438,-0.845175,-0.089776,-0.411664,-0.906903,0.008676,0.022840,-0.009876,7.006273,2.623233,-36.544006,,,,,,,
1504199502.061487,-0.087670,0.427318,-0.159345,0.323502,0.763971,-0.656430,-0.079685,-0.414432,-0.906585,0.046024,0.094394,-0.108109,7.006273,2.623233,-36.544006,,,,,,,
1504199502.071497,-0.079531,0.432453,-0.165028,0.496984,0.524777,-0.525485,-0.072133,-0.419100,-0.905070,0.022283,0.084093,-0.264821,7.456575,2.550113,-36.467346,,,,,,,
1504199502.081506,-0.073715,0.437869,-0.169380,0.502447,0.347719,-0.406681,-0.066701,-0.424010,-0.903198,0.032765,0.057616,-0.253479,7.456575,2.550113,-36.467346,,,,,,,
1504199502.091516,-0.070252,0.442503,-0.172809,0.414018,0.148029,-0.324292,-0.063433,-0.428203,-0.901454,0.036791,0.111583,-0.166357,7.756762,2.476459,-36.466034,,,,,,,
1504199502.101526,-0.068676,0.445932,-0.175940,0.289955,-0.010809,-0.305014,-0.061911,-0.431299,-0.900082,0.006369,0.137140,-0.110019,7.756762,2.476459,-36.466034,,,,,,,
1504199502.111536,-0.066313,0.437606,-0.180348,0.133451,-0.125490,-0.360622,-0.060021,-0.423772,-0.903778,-0.005394,0.120687,-0.062119,7.383043,2.099322,-36.239166,,,,,,,
1504199502.121545,-0.065867,0.437793,-0.185052,-0.065960,-0.162126,-0.440959,-0.059612,-0.423942,-0.903725,-0.008946,0.103752,-0.018455,7.383043,2.099322,-36.239166,,,,,,,
1504199502.131555,-0.065318,0.435112,-0.189688,-0.380775,-0.127636,-0.372184,-0.059189,-0.421512,-0.904889,0.000306,0.087146,0.009061,7.007296,2.397632,-36.242340,,,,,,,
1504199502.141565,-0.065301,0.428847,-0.192664,-0.727452,-0.129247,-0.176380,-0.059346,-0.415822,-0.907508,0.055134,0.049840,0.064261,7.007296,2.397632,-36.242340,,,,,,,
1504199502.151575,-0.066531,0.419391,-0.193760,-1.012640,-0.189955,0.003624,-0.060720,-0.407204,-0.911316,0.085760,-0.031837,0.124238,7.381243,2.550220,-36.692535,,,,,,,
1504199502.161584,-0.069133,0.407567,-0.194203,-1.236843,-0.319215,0.039755,-0.063420,-0.396377,-0.915895,0.091847,-0.064988,0.116731,7.381243,2.550220,-36.692535,,,,,,,
1504199502.171594,-0.072368,0.393873,-0.195767,-1.417123,-0.394321,-0.087446,-0.066768,-0.383768,-0.921013,0.057293,-0.065390,0.090263,7.005068,3.148089,-36.472931,,,,,,,
1504199502.181604,-0.074195,0.379049,-0.199744,-1.521881,-0.297312,-0.320492,-0.068866,-0.370037,-0.926461,-0.012006,-0.061451,0.125741,7.005068,3.148089,-36.472931,,,,,,,
1504199502.191583,-0.072974,0.364204,-0.206543,-1.515404,-0.055194,-0.589893,-0.068127,-0.356206,-0.931921,-0.072131,-0.038875,0.210058,6.776720,4.347537,-36.707520,,,,,,,
1504199502.201593,-0.067732,0.350820,-0.215880,-1.338642,0.282465,-0.834617,-0.063558,-0.343668,-0.936938,-0.122981,-0.000052,0.277713,6.776720,4.347537,-36.707520,,,,,,,
1504199502.211603,-0.058935,0.340409,-0.227300,-1.022750,0.549698,-1.064033,-0.055521,-0.333872,-0.940982,-0.140753,0.027796,0.291934,6.624453,5.471118,-36.341339,,,,,,,
1504199502.221613,-0.047958,0.333373,-0.240868,-0.685624,0.666514,-1.299550,-0.045301,-0.327232,-0.943858,-0.121127,0.030250,0.237910,6.624453,5.471118,-36.341339,,,,,,,
1504199502.231622,-0.036697,0.329285,-0.256317,-0.411012,0.604766,-1.480424,-0.034718,-0.323366,-0.945637,-0.099270,0.028734,0.173695,6.698900,5.920703,-35.969513,,,,,,,
1504199502.241632,-0.026321,0.326715,-0.272531,-0.270989,0.472595,-1.529049,-0.024926,-0.320933,-0.946774,-0.047950,0.006755,0.112118,6.698900,5.920703,-35.969513,,,,,,,
1504199502.251642,-0.017448,0.325058,-0.288875,-0.173834,0.333290,-1.551050,-0.016533,-0.319364,-0.947488,0.081337,0.043469,0.041696,6.847078,6.596530,-36.049225,,,,,,,
1504199502.261652,-0.009000,0.324219,-0.306401,-0.049370,0.203478,-1.685101,-0.008531,-0.318569,-0.947861,0.216966,0.130092,0.019135,6.847078,6.596530,-36.049225,,,,,,,
1504199502.271661,-0.001938,0.325343,-0.326501,0.160779,0.008125,-1.990737,-0.001836,-0.319633,-0.947540,0.250066,0.152809,0.024825,6.697802,6.445407,-35.823456,,,,,,,
1504199502.281671,0.003424,0.328858,-0.350271,0.414946,-0.309030,-2.332373,0.003240,-0.322962,-0.946406,0.199366,0.086100,0.019313,6.697802,6.445407,-35.823456,,,,,,,
1504199502.291681,0.006829,0.333909,-0.377261,0.544046,-0.614568,-2.608068,0.006451,-0.327739,-0.944746,0.081622,-0.002614,0.035795,6.247911,6.218982,-36.122864,,,,,,,
1504199502.301691,0.007630,0.339335,-0.406169,0.557976,-0.962986,-2.750461,0.007195,-0.332860,-0.942949,-0.015206,-0.072048,0.041261,6.247911,6.218982,-36.122864,,,,,,,
1504199502.311700,0.005353,0.344270,-0.435844,0.493577,-1.305532,-2.794800,0.005039,-0.337510,-0.941308,-0.031650,-0.101257,0.005762,5.273256,6.214145,-35.900299,,,,,,,
1504199502.321710,-0.000014,0.348908,-0.465348,0.467504,-1.610114,-2.761219,-0.000013,-0.341872,-0.939747,-0.051028,-0.129030,-0.018643,5.273256,6.214145,-35.900299,,,,,,,
1504199502.331720,-0.007905,0.354182,-0.494357,0.541196,-1.837743,-2.712656,-0.007414,-0.346824,-0.937901,-0.072923,-0.153939,-0.011043,3.772676,6.357715,-36.055115,,,,,,,
1504199502.341730,-0.017185,0.361188,-0.523122,0.718374,-1.955366,-2.700400,-0.016075,-0.353386,-0.935340,-0.096291,-0.139565,0.007743,3.772676,6.357715,-36.055115,,,,,,,
1504199502.351739,-0.026494,0.370510,-0.552086,0.921260,-1.954871,-2.733139,-0.024693,-0.362091,-0.931816,-0.122951,-0.124283,0.035957,2.348360,5.901904,-36.355255,,,,,,,
1504199502.361749,-0.034383,0.381886,-0.581420,1.092133,-1.823042,-2.768300,-0.031900,-0.372671,-0.927415,-0.145087,-0.084055,0.040895,2.348360,5.901904,-36.355255,,,,,,,
1504199502.371759,-0.039636,0.394577,-0.611084,1.181693,-1.578667,-2.792058,-0.036581,-0.384418,-0.922434,-0.150141,-0.035687,0.035364,0.475069,5.218463,-36.354797,,,,,,,
1504199502.381769,-0.041326,0.407350,-0.640917,1.147073,-1.247120,-2.794839,-0.037934,-0.396178,-0.917390,-0.146682,-0.026171,0.037110,0.475069,5.218463,-36.354797,,,,,,,
1504199502.391779,-0.038852,0.418872,-0.671058,0.993372,-0.860097,-2.804327,-0.035484,-0.406730,-0.912859,-0.138954,-0.023858,0.034838,-0.947355,4.236911,-36.276031,,,,,,,
1504199502.401788,-0.031794,0.428497,-0.701476,0.816414,-0.438796,-2.802174,-0.028915,-0.415504,-0.909132,-0.139741,-0.013802,0.028791,-0.947355,4.236911,-36.276031,,,,,,,
1504199502.411798,-0.020328,0.436198,-0.732076,0.659538,-0.037912,-2.794614,-0.018423,-0.422496,-0.906177,-0.148249,-0.023030,0.037540,-1.170439,3.560596,-36.121490,,,,,,,
1504199502.421777,-0.005125,0.442374,-0.762976,0.559712,0.280470,-2.806022,-0.004631,-0.428086,-0.903726,-0.155616,0.004884,0.041238,-1.170439,3.560596,-36.121490,,,,,,,
1504199502.431787,0.012734,0.447693,-0.794168,0.545326,0.478797,-2.812801,0.011478,-0.432887,-0.901375,-0.169971,0.031016,0.051247,-1.843779,2.807864,-36.267548,,,,,,,
1504199502.441797,0.031180,0.452983,-0.825620,0.608133,0.459103,-2.815860,0.028031,-0.437650,-0.898709,-0.180329,0.049451,0.047436,-1.843779,2.807864,-36.267548,,,,,,,
1504199502.451807,0.048258,0.458528,-0.856974,0.684317,0.270888,-2.775902,0.043256,-0.442628,-0.895661,-0.184370,0.087404,-0.004287,-1.467833,2.434543,-36.263794,,,,,,,
1504199502.461816,0.062397,0.464297,-0.887601,0.737977,-0.026962,-2.673881,0.055755,-0.447794,-0.892397,-0.199890,0.085062,-0.044005,-1.467833,2.434543,-36.263794,,,,,,,
1504199502.471826,0.072764,0.469981,-0.916587,0.739824,-0.350043,-2.491849,0.064817,-0.452869,-0.889218,-0.212614,0.071918,-0.077701,-1.690870,1.832934,-35.959839,,,,,,,
1504199502.481836,0.079070,0.475149,-0.943275,0.674367,-0.661950,-2.274730,0.070237,-0.457471,-0.886446,-0.218416,0.056318,-0.091993,-1.690870,1.832934,-35.959839,,,,,,,
1504199502.491846,0.081675,0.479162,-0.967594,0.536864,-0.916776,-2.067443,0.072397,-0.461035,-0.884424,-0.223657,0.060950,-0.099173,-2.065306,1.606250,-35.959076,,,,,,,
1504199502.501855,0.081327,0.481741,-0.989775,0.376636,-1.102112,-1.898744,0.071992,-0.463323,-0.883260,-0.232072,0.054464,-0.084193,-2.065306,1.606250,-35.959076,,,,,,,
1504199502.511865,0.078949,0.483018,-1.010256,0.240679,-1.208757,-1.764299,0.069844,-0.464454,-0.882839,-0.250417,0.038734,-0.054493,-3.113935,1.151233,-35.808289,,,,,,,
1504199502.521875,0.074516,0.483434,-1.029080,0.163953,-1.265777,-1.661861,0.065916,-0.464823,-0.882947,-0.264631,0.063959,-0.033298,-3.113935,1.151233,-35.808289,,,,,,,
1504199502.531885,0.070376,0.483883,-1.046985,0.163637,-1.232861,-1.545572,0.062245,-0.465220,-0.883004,-0.273030,0.077021,-0.012412,-3.863264,0.922717,-35.733429,,,,,,,
1504199502.541894,0.066174,0.485061,-1.063277,0.233901,-1.153684,-1.387615,0.058498,-0.466263,-0.882710,-0.283199,0.055679,0.025258,-3.863264,0.922717,-35.733429,,,,,,,
1504199502.551904,0.062215,0.487164,-1.077626,0.308626,-1.033014,-1.201970,0.054941,-0.468122,-0.881954,-0.285914,0.060956,0.042126,-4.611326,0.244052,-35.580231,,,,,,,
1504199502.561914,0.058381,0.490048,-1.089700,0.366402,-0.894095,-1.012117,0.051481,-0.470668,-0.880807,-0.272687,0.064403,0.053048,-4.611326,0.244052,-35.580231,,,,,,,
1504199502.571924,0.055298,0.493255,-1.100094,0.367712,-0.770652,-0.862896,0.048681,-0.473495,-0.879450,-0.250585,0.062820,0.052927,-4.985426,0.016910,-35.354431,,,,,,,
1504199502.581934,0.052324,0.496024,-1.109709,0.299347,-0.754149,-0.820347,0.045997,-0.475933,-0.878278,-0.226035,0.076992,0.036786,-4.985426,0.016910,-35.354431,,,,,,,
1504199502.591943,0.049324,0.497984,-1.118744,0.215023,-0.726867,-0.769306,0.043316,-0.477655,-0.877479,-0.196682,0.086298,0.013694,-5.282866,-0.735333,-34.899567,,,,,,,
1504199502.601953,0.045809,0.499111,-1.127210,0.143331,-0.735894,-0.742730,0.040207,-0.478645,-0.877087,-0.151184,0.094810,0.006421,-5.282866,-0.735333,-34.899567,,,,,,,
1504199502.611963,0.042592,0.499846,-1.135906,0.100767,-0.737648,-0.768418,0.037370,-0.479291,-0.876860,-0.137635,0.111356,0.005126,-6.257963,-0.739575,-34.976929,,,,,,,
1504199502.621973,0.039934,0.500719,-1.145115,0.135490,-0.694195,-0.815400,0.035023,-0.480056,-0.876538,-0.137577,0.124862,0.013196,-6.257963,-0.739575,-34.976929,,,,,,,
1504199502.631982,0.038270,0.502572,-1.154865,0.254799,-0.608823,-0.854838,0.033530,-0.481681,-0.875705,-0.136450,0.137656,0.035037,-6.856565,-1.117871,-34.675629,,,,,,,
1504199502.641992,0.037766,0.506195,-1.165086,0.444422,-0.535753,-0.893065,0.033022,-0.484853,-0.873972,-0.137911,0.129277,0.064341,-6.856565,-1.117871,-34.675629,,,,,,,
1504199502.652002,0.038147,0.511545,-1.175693,0.604106,-0.452876,-0.902541,0.033256,-0.489525,-0.871355,-0.135718,0.143120,0.065080,-7.155775,-1.568769,-34.897980,,,,,,,
1504199502.661981,0.039358,0.518054,-1.185815,0.704854,-0.352546,-0.833162,0.034185,-0.495190,-0.868112,-0.121450,0.122357,0.072228,-7.155775,-1.568769,-34.897980,,,,,,,
1504199502.671991,0.040757,0.524854,-1.194650,0.699387,-0.288699,-0.704128,0.035262,-0.501087,-0.864678,-0.103606,0.071018,0.090768,-7.529524,-2.020612,-34.820526,,,,,,,
1504199502.682001,0.041605,0.530833,-1.202186,0.593130,-0.304978,-0.603948,0.035869,-0.506252,-0.861639,-0.084911,0.080547,0.062628,-7.529524,-2.020612,-34.820526,,,,,,,
1504199502.692010,0.041362,0.535468,-1.209019,0.473909,-0.381819,-0.568795,0.035562,-0.510243,-0.859294,-0.076059,0.093862,0.021633,-7.527159,-2.696500,-34.365479,,,,,,,
1504199502.702020,0.040257,0.539479,-1.215941,0.409060,-0.495288,-0.583651,0.034530,-0.513689,-0.857281,-0.072876,0.094317,0.003216,-7.527159,-2.696500,-34.365479,,,,,,,
1504199502.712030,0.038390,0.543164,-1.223279,0.397887,-0.583599,-0.624076,0.032857,-0.516847,-0.855447,-0.070027,0.098100,-0.002891,-7.750914,-3.147672,-34.287628,,,,,,,
1504199502.722040,0.036432,0.547419,-1.231031,0.472615,-0.594843,-0.650612,0.031101,-0.520485,-0.853304,-0.069050,0.103035,-0.000700,-7.750914,-3.147672,-34.287628,,,,,,,
1504199502.732050,0.035009,0.552735,-1.238845,0.580845,-0.530742,-0.641998,0.029790,-0.525017,-0.850570,-0.075002,0.098061,0.006957,-7.899336,-3.598935,-33.984650,,,,,,,
1504199502.742059,0.034593,0.559004,-1.246355,0.668061,-0.406826,-0.602572,0.029322,-0.530342,-0.847277,-0.091272,0.075127,0.013964,-7.899336,-3.598935,-33.984650,,,,,,,
1504199502.752069,0.035140,0.565954,-1.253295,0.728479,-0.291226,-0.551436,0.029655,-0.536222,-0.843556,-0.110283,0.057309,0.012990,-8.123457,-3.900098,-33.907928,,,,,,,
1504199502.762079,0.036215,0.572928,-1.259812,0.703271,-0.215404,-0.509984,0.030425,-0.542095,-0.839766,-0.124389,0.058391,-0.008027,-8.123457,-3.900098,-33.907928,,,,,,,
1504199502.772089,0.038000,0.579369,-1.265387,0.650350,-0.106370,-0.420606,0.031791,-0.547496,-0.836204,-0.129295,0.055660,-0.031578,-8.345945,-4.726712,-33.602264,,,,,,,
1504199502.782098,0.037310,0.585449,-1.268574,0.598908,-0.074083,-0.326819,0.031089,-0.552574,-0.832884,-0.130302,-0.001641,-0.017732,-8.345945,-4.726712,-33.602264,,,,,,,
1504199502.792108,0.038441,0.590999,-1.272004,0.554703,-0.081263,-0.245761,0.031913,-0.557191,-0.829771,-0.135703,0.018800,-0.050173,-8.569960,-5.028028,-33.450562,,,,,,,
1504199502.802118,0.038948,0.596339,-1.274610,0.538242,-0.097180,-0.179582,0.032217,-0.561617,-0.826770,-0.134481,0.004778,-0.055097,-8.569960,-5.028028,-33.450562,,,,,,,
1504199502.812128,0.039017,0.601530,-1.276599,0.518715,-0.108788,-0.133697,0.032160,-0.565905,-0.823843,-0.133036,0.003328,-0.054178,-8.643370,-5.703214,-33.520691,,,,,,,
1504199502.822137,0.031335,0.605526,-1.273930,0.500155,-0.128926,-0.093133,0.025760,-0.569195,-0.821799,-0.129718,-0.002568,-0.050225,-8.643370,-5.703214,-33.520691,,,,,,,
1504199502.832147,0.030408,0.610377,-1.274715,0.479491,-0.139476,-0.031240,0.024914,-0.573177,-0.819053,-0.129207,-0.005833,-0.058343,-8.493071,-5.777692,-33.444733,,,,,,,
1504199502.842157,0.028741,0.615036,-1.274456,0.456525,-0.154297,0.057340,0.023471,-0.576988,-0.816415,-0.125903,-0.012749,-0.064993,-8.493071,-5.777692,-33.444733,,,,,,,
1504199502.852167,0.026307,0.619275,-1.273090,0.407969,-0.167841,0.144807,0.021419,-0.580445,-0.814018,-0.117885,-0.018371,-0.067284,-8.716383,-6.229459,-33.066925,,,,,,,
1504199502.862176,0.016238,0.621730,-1.266777,0.332690,-0.193929,0.210902,0.013199,-0.582442,-0.812765,-0.101502,-0.024324,-0.072672,-8.716383,-6.229459,-33.066925,,,,,,,
1504199502.872186,0.012405,0.624282,-1.264054,0.220268,-0.234576,0.224655,0.010065,-0.584515,-0.811321,-0.083689,-0.011600,-0.085652,-8.715773,-6.379758,-32.915802,,,,,,,
1504199502.882196,0.008331,0.625806,-1.261677,0.128396,-0.276398,0.180806,0.006752,-0.585751,-0.810463,-0.066140,0.012341,-0.104744,-8.715773,-6.379758,-32.915802,,,,,,,
1504199502.892175,0.004566,0.626273,-1.260168,0.018801,-0.288200,0.101649,0.003699,-0.586129,-0.810209,-0.052344,0.021142,-0.112078,-9.165129,-6.457379,-32.616364,,,,,,,
1504199502.902185,-0.001756,0.618360,-1.257748,-0.072195,-0.246748,0.007462,-0.001431,-0.579700,-0.814829,-0.043613,0.016498,-0.097387,-9.165129,-6.457379,-32.616364,,,,,,,
1504199502.912195,-0.003094,0.617066,-1.258541,-0.144598,-0.153346,-0.086760,-0.002524,-0.578645,-0.815576,-0.046472,0.012132,-0.078055,-9.164381,-6.757382,-32.614105,,,,,,,
1504199502.922205,-0.002716,0.615318,-1.260294,-0.185965,-0.034648,-0.159624,-0.002218,-0.577218,-0.816587,-0.053598,0.000833,-0.054293,-9.164381,-6.757382,-32.614105,,,,,,,
1504199502.932214,-0.000881,0.613384,-1.262811,-0.195582,0.060330,-0.218515,-0.000720,-0.575637,-0.817705,-0.061505,-0.015732,-0.032790,-9.315168,-6.532758,-32.766174,,,,,,,
1504199502.942224,-0.004184,0.613129,-1.262375,-0.211020,0.110533,-0.260249,-0.003422,-0.575429,-0.817844,-0.068432,-0.032267,-0.024303,-9.315168,-6.532758,-32.766174,,,,,,,
1504199502.952234,-0.001196,0.610742,-1.265859,-0.248359,0.091692,-0.291236,-0.000980,-0.573475,-0.819222,-0.074871,-0.034481,-0.025993,-9.239943,-6.532712,-32.615967,,,,,,,
1504199502.962244,0.001306,0.607873,-1.269562,-0.301157,0.017550,-0.306140,0.001072,-0.571123,-0.820864,-0.079776,-0.030867,-0.036085,-9.239943,-6.532712,-32.615967,,,,,,,
1504199502.972253,0.002843,0.604649,-1.273268,-0.326526,-0.083477,-0.301736,0.002339,-0.568473,-0.822698,-0.084446,-0.029915,-0.040446,-9.239943,-6.532712,-32.615967,,,,,,,
1504199502.982263,-0.002241,0.602223,-1.273720,-0.327570,-0.198604,-0.284450,-0.001847,-0.566476,-0.824076,-0.082824,-0.033317,-0.035299,-9.239943,-6.532712,-32.615967,,,,,,,
1504199502.992262,-0.003267,0.599248,-1.276945,-0.292331,-0.312939,-0.259637,-0.002697,-0.564022,-0.825755,-0.087299,-0.041264,-0.024434,-9.165098,-6.606931,-32.840240,,,,,,,
1504199503.002272,-0.005493,0.596599,-1.280036,-0.249483,-0.420924,-0.252968,-0.004544,-0.561832,-0.827239,-0.094714,-0.046932,-0.015108,-9.165098,-6.606931,-32.840240,,,,,,,
1504199503.012281,-0.008671,0.594707,-1.283011,-0.176536,-0.498260,-0.242031,-0.007182,-0.560266,-0.828282,-0.106527,-0.056708,-0.004924,-9.616636,-5.859403,-32.621979,,,,,,,
1504199503.022291,-0.016468,0.595832,-1.283409,-0.137302,-0.512511,-0.221646,-0.013629,-0.561198,-0.827569,-0.112210,-0.063970,0.000558,-9.616636,-5.859403,-32.621979,,,,,,,
1504199503.032301,-0.019999,0.594699,-1.285861,-0.111560,-0.477589,-0.192843,-0.016565,-0.560259,-0.828152,-0.121741,-0.059538,0.001858,-9.840544,-6.160855,-32.395264,,,,,,,
1504199503.042311,-0.023192,0.593855,-1.287872,-0.079232,-0.415022,-0.156606,-0.019219,-0.559560,-0.828567,-0.123267,-0.056956,-0.002488,-9.840544,-6.160855,-32.395264,,,,,,,
1504199503.052320,-0.025868,0.593025,-1.289551,-0.088380,-0.343576,-0.133265,-0.021448,-0.558872,-0.828977,-0.119970,-0.053601,-0.012240,-9.914946,-6.311490,-32.244293,,,,,,,
1504199503.062330,-0.035621,0.593570,-1.286831,-0.135808,-0.264381,-0.134541,-0.029522,-0.559324,-0.828423,-0.109089,-0.041567,-0.031410,-9.914946,-6.311490,-32.244293,,,,,,,
1504199503.072340,-0.036659,0.591692,-1.288785,-0.214075,-0.196573,-0.163616,-0.030420,-0.557766,-0.829441,-0.102515,-0.022541,-0.049786,-9.990355,-6.236539,-32.395081,,,,,,,
1504199503.082350,-0.036837,0.589012,-1.291213,-0.293465,-0.140470,-0.200145,-0.030623,-0.555540,-0.830926,-0.098390,-0.009844,-0.064750,-9.990355,-6.236539,-32.395081,,,,,,,
1504199503.092360,-0.036447,0.585891,-1.294055,-0.326188,-0.115660,-0.231200,-0.030362,-0.552942,-0.832667,-0.095874,-0.014517,-0.067800,-10.215574,-6.012998,-32.172272,,,,,,,
1504199503.102369,-0.040769,0.581915,-1.294595,-0.344392,-0.136796,-0.258943,-0.034049,-0.549625,-0.834717,-0.087441,-0.030499,-0.061858,-10.215574,-6.012998,-32.172272,,,,,,,
1504199503.112379,-0.040564,0.578505,-1.298156,-0.352121,-0.189978,-0.291952,-0.033954,-0.546773,-0.836592,-0.084714,-0.041393,-0.057084,-10.065962,-5.862317,-32.173035,,,,,,,
1504199503.122389,-0.040800,0.575279,-1.302061,-0.324725,-0.250913,-0.320617,-0.034223,-0.544069,-0.838342,-0.085787,-0.046309,-0.049613,-10.065962,-5.862317,-32.173035,,,,,,,
1504199503.132368,-0.041490,0.572743,-1.306160,-0.243978,-0.302712,-0.335330,-0.034859,-0.541939,-0.839694,-0.087501,-0.048210,-0.042889,-10.516523,-5.639340,-32.175842,,,,,,,
1504199503.142378,-0.046030,0.572317,-1.308409,-0.142971,-0.345127,-0.337208,-0.038681,-0.541581,-0.839758,-0.086075,-0.051650,-0.040064,-10.516523,-5.639340,-32.175842,,,,,,,
1504199503.152388,-0.047530,0.571694,-1.312473,-0.056769,-0.374605,-0.340209,-0.039957,-0.541058,-0.840036,-0.089194,-0.049122,-0.044745,-10.590620,-5.865125,-31.949341,,,,,,,
1504199503.162397,-0.049219,0.571866,-1.316515,0.018879,-0.386951,-0.338989,-0.041371,-0.541202,-0.839874,-0.098872,-0.048733,-0.053772,-10.590620,-5.865125,-31.949341,,,,,,,
1504199503.172407,-0.050835,0.572653,-1.320412,0.074476,-0.365044,-0.327189,-0.042707,-0.541864,-0.839380,-0.108645,-0.054648,-0.062673,-10.814939,-6.091290,-31.873199,,,,,,,
1504199503.182417,-0.055976,0.574848,-1.322024,0.117614,-0.301493,-0.322950,-0.046954,-0.543707,-0.837960,-0.114438,-0.068063,-0.067603,-10.814939,-6.091290,-31.873199,,,,,,,
1504199503.192427,-0.056162,0.576265,-1.325814,0.125928,-0.197130,-0.325254,-0.047068,-0.544896,-0.837181,-0.127279,-0.083903,-0.069969,-10.814146,-6.540845,-32.094849,,,,,,,
1504199503.202436,-0.055148,0.577492,-1.329587,0.093825,-0.072196,-0.320193,-0.046182,-0.545924,-0.836561,-0.139014,-0.096287,-0.071154,-10.814146,-6.540845,-32.094849,,,,,,,
1504199503.212446,-0.053016,0.578052,-1.333320,0.017797,0.030721,-0.314102,-0.044382,-0.546394,-0.836352,-0.142431,-0.104470,-0.075910,-11.039259,-6.317441,-31.797058,,,,,,,
1504199503.222456,-0.050357,0.577641,-1.337048,-0.082244,0.066703,-0.306867,-0.042169,-0.546049,-0.836691,-0.140433,-0.103548,-0.087244,-11.039259,-6.317441,-31.797058,,,,,,,
1504199503.232466,-0.047940,0.576339,-1.340705,-0.162629,0.028990,-0.294131,-0.040181,-0.544958,-0.837500,-0.138927,-0.102533,-0.099451,-11.038984,-6.467298,-31.870941,,,,,,,
1504199503.242476,-0.046358,0.574301,-1.344013,-0.232716,-0.039736,-0.256772,-0.038907,-0.543248,-0.838670,-0.134555,-0.102107,-0.104933,-11.038984,-6.467298,-31.870941,,,,,,,
1504199503.252485,-0.045765,0.571704,-1.346848,-0.279386,-0.112921,-0.215095,-0.038474,-0.541066,-0.840099,-0.128396,-0.102138,-0.099705,-10.739668,-6.240796,-31.946869,,,,,,,
1504199503.262495,-0.046214,0.568909,-1.349166,-0.288742,-0.187482,-0.170149,-0.038921,-0.538713,-0.841590,-0.126927,-0.096221,-0.087564,-10.739668,-6.240796,-31.946869,,,,,,,
1504199503.272505,-0.047640,0.566362,-1.350909,-0.253205,-0.250694,-0.123011,-0.040187,-0.536566,-0.842901,-0.127706,-0.086771,-0.073130,-10.814146,-6.316586,-31.721527,,,,,,,
1504199503.282515,-0.049752,0.564183,-1.352164,-0.209913,-0.285187,-0.087650,-0.042024,-0.534726,-0.843980,-0.124861,-0.078754,-0.059996,-10.814146,-6.316586,-31.721527,,,,,,,
1504199503.292524,-0.052262,0.562378,-1.353171,-0.181364,-0.308879,-0.073683,-0.044193,-0.533199,-0.844835,-0.123943,-0.069325,-0.044066,-10.965498,-5.866956,-31.875275,,,,,,,
1504199503.302534,-0.054931,0.560766,-1.354089,-0.159052,-0.316529,-0.067226,-0.046494,-0.531835,-0.845570,-0.126449,-0.068613,-0.026042,-10.965498,-5.866956,-31.875275,,,,,,,
1504199503.312544,-0.065477,0.563415,-1.350636,-0.157969,-0.297461,-0.049092,-0.055317,-0.534077,-0.843624,-0.121014,-0.070553,-0.010578,-11.190153,-5.868421,-31.650818,,,,,,,
1504199503.322554,-0.067803,0.561792,-1.351145,-0.167257,-0.244128,-0.026786,-0.057338,-0.532704,-0.844357,-0.115590,-0.076198,0.007779,-11.190153,-5.868421,-31.650818,,,,,,,
1504199503.332563,-0.069519,0.560071,-1.351439,-0.174210,-0.168432,-0.008786,-0.058850,-0.531246,-0.845171,-0.102130,-0.070194,0.021166,-11.565153,-5.870099,-31.651733,,,,,,,
1504199503.342573,-0.070482,0.558394,-1.351746,-0.165036,-0.093906,-0.017441,-0.059727,-0.529825,-0.846001,-0.087841,-0.041143,0.026696,-11.565153,-5.870099,-31.651733,,,,,,,
1504199503.352583,-0.076250,0.559123,-1.349273,-0.145261,-0.029098,-0.034585,-0.064576,-0.530443,-0.845257,-0.074004,-0.014967,0.027844,-11.265150,-5.868756,-31.651001,,,,,,,
1504199503.362593,-0.075663,0.557908,-1.350057,-0.124348,0.032566,-0.064545,-0.064129,-0.529413,-0.845937,-0.067127,0.001779,0.031560,-11.265150,-5.868756,-31.651001,,,,,,,
1504199503.372572,-0.074461,0.556794,-1.351261,-0.116458,0.061312,-0.103009,-0.063156,-0.528467,-0.846601,-0.063401,0.011316,0.037306,-11.190077,-5.943265,-31.725281,,,,,,,
1504199503.382582,-0.073079,0.555837,-1.352820,-0.100337,0.049384,-0.131785,-0.062023,-0.527654,-0.847192,-0.063984,0.010916,0.040841,-11.190077,-5.943265,-31.725281,,,,,,,
1504199503.392591,-0.076607,0.555525,-1.352149,-0.077283,-0.006224,-0.142312,-0.065023,-0.527390,-0.847132,-0.060816,0.012451,0.036554,-11.265348,-5.793759,-31.651581,,,,,,,
1504199503.402601,-0.076488,0.554910,-1.353890,-0.070606,-0.106443,-0.144258,-0.064947,-0.526867,-0.847463,-0.062372,0.012097,0.030461,-11.265348,-5.793759,-31.651581,,,,,,,
1504199503.412611,-0.077516,0.554640,-1.355616,-0.029902,-0.219732,-0.143988,-0.065830,-0.526637,-0.847537,-0.068127,0.004527,0.024723,-11.416090,-5.494428,-31.654175,,,,,,,
1504199503.422621,-0.079462,0.554540,-1.357324,-0.017736,-0.300815,-0.145959,-0.067483,-0.526552,-0.847460,-0.073631,0.001283,0.019595,-11.416090,-5.494428,-31.654175,,,,,,,
1504199503.432631,-0.087043,0.554491,-1.356362,0.006647,-0.325520,-0.160807,-0.073908,-0.526511,-0.846950,-0.076590,0.008475,0.019252,-11.715071,-5.945630,-31.726562,,,,,,,
1504199503.442640,-0.088937,0.554849,-1.358346,0.026287,-0.279846,-0.174730,-0.075495,-0.526815,-0.846621,-0.090185,0.013189,0.023745,-11.715071,-5.945630,-31.726562,,,,,,,
1504199503.452650,-0.089928,0.555385,-1.360426,0.035651,-0.180815,-0.182360,-0.076308,-0.527270,-0.846264,-0.104279,0.005679,0.033200,-11.789808,-5.871564,-31.427307,,,,,,,
1504199503.462660,-0.089738,0.556026,-1.362409,0.054741,-0.053114,-0.168676,-0.076117,-0.527815,-0.845942,-0.118402,-0.003802,0.042231,-11.789808,-5.871564,-31.427307,,,,,,,
1504199503.472670,-0.096637,0.558501,-1.359738,0.046958,0.067282,-0.135794,-0.081825,-0.529916,-0.844094,-0.120491,-0.008002,0.042885,-11.639219,-6.021192,-31.275818,,,,,,,
1504199503.482679,-0.094637,0.558955,-1.360982,0.029305,0.150507,-0.099680,-0.080114,-0.530301,-0.844016,-0.120829,-0.009387,0.033027,-11.639219,-6.021192,-31.275818,,,,,,,
1504199503.492689,-0.092332,0.558986,-1.361959,-0.015365,0.182818,-0.076331,-0.078167,-0.530327,-0.844182,-0.116168,-0.003578,0.014272,-11.939253,-6.097241,-31.425964,,,,,,,
1504199503.502699,-0.090274,0.558666,-1.362760,-0.046651,0.148961,-0.061382,-0.076445,-0.530056,-0.844510,-0.109834,-0.000020,-0.005755,-11.939253,-6.097241,-31.425964,,,,,,,
1504199503.512709,-0.094871,0.556596,-1.360508,-0.089084,0.049150,-0.063404,-0.080430,-0.528299,-0.845241,-0.097625,-0.005286,-0.024221,-11.564436,-6.020551,-31.425598,,,,,,,
1504199503.522718,-0.095104,0.555511,-1.361271,-0.128771,-0.101853,-0.049331,-0.080682,-0.527377,-0.845792,-0.094504,-0.005109,-0.048434,-11.564436,-6.020551,-31.425598,,,,,,,
1504199503.532728,-0.097183,0.553992,-1.361696,-0.161274,-0.273187,-0.010658,-0.082517,-0.526087,-0.846418,-0.092425,-0.001440,-0.070406,-11.714476,-6.095929,-31.575409,,,,,,,
1504199503.542738,-0.101242,0.552340,-1.361540,-0.161765,-0.434145,0.044062,-0.086040,-0.524680,-0.846940,-0.094075,-0.008904,-0.080657,-11.714476,-6.095929,-31.575409,,,,,,,
1504199503.552748,-0.109773,0.549851,-1.359094,-0.121276,-0.531509,0.109421,-0.093405,-0.522560,-0.847471,-0.100870,-0.025200,-0.075122,-11.639631,-5.945889,-31.426361,,,,,,,
1504199503.562758,-0.116253,0.548911,-1.357225,-0.057804,-0.550230,0.188551,-0.098952,-0.521759,-0.847335,-0.105989,-0.036820,-0.058213,-11.639631,-5.945889,-31.426361,,,,,,,
1504199503.572767,-0.122922,0.548517,-1.354454,0.004077,-0.509250,0.254765,-0.104625,-0.521422,-0.846860,-0.104664,-0.046479,-0.039691,-12.014357,-5.873181,-31.127869,,,,,,,
1504199503.582777,-0.129185,0.548508,-1.351077,0.042934,-0.428625,0.294184,-0.109927,-0.521415,-0.846193,-0.100354,-0.045220,-0.030638,-12.014357,-5.873181,-31.127869,,,,,,,
1504199503.592787,-0.137772,0.548896,-1.345686,0.068216,-0.316986,0.320723,-0.117162,-0.521746,-0.845017,-0.098597,-0.035642,-0.035430,-12.614927,-5.650876,-31.131042,,,,,,,
1504199503.602766,-0.142039,0.549120,-1.341617,0.073464,-0.178527,0.346106,-0.120750,-0.521937,-0.844394,-0.099282,-0.035406,-0.042508,-12.614927,-5.650876,-31.131042,,,,,,,
1504199503.612776,-0.144907,0.549440,-1.337373,0.085291,-0.028384,0.354401,-0.123147,-0.522210,-0.843879,-0.093574,-0.036948,-0.048150,-12.914244,-5.653119,-30.681763,,,,,,,
1504199503.622786,-0.146498,0.549747,-1.333175,0.079839,0.085688,0.346718,-0.124466,-0.522472,-0.843523,-0.087845,-0.043019,-0.056471,-12.914244,-5.653119,-30.681763,,,,,,,
1504199503.632795,-0.150239,0.549772,-1.327561,0.065601,0.162541,0.326284,-0.127619,-0.522493,-0.843039,-0.077429,-0.044722,-0.066721,-12.764952,-5.501996,-30.907532,,,,,,,
1504199503.642805,-0.150206,0.549932,-1.323837,0.063918,0.206265,0.305924,-0.127579,-0.522629,-0.842960,-0.069000,-0.042281,-0.077709,-12.764952,-5.501996,-30.907532,,,,,,,
1504199503.652815,-0.149906,0.550139,-1.320289,0.064050,0.214802,0.293100,-0.127309,-0.522806,-0.842892,-0.064417,-0.042532,-0.079990,-12.989912,-5.428296,-30.758636,,,,,,,
1504199503.662825,-0.149751,0.550207,-1.316879,0.043575,0.184077,0.284579,-0.127174,-0.522864,-0.842876,-0.056680,-0.045221,-0.079014,-12.989912,-5.428296,-30.758636,,,,,,,
1504199503.672834,-0.151755,0.549653,-1.312610,-0.001672,0.135421,0.292062,-0.128906,-0.522391,-0.842906,-0.048401,-0.048684,-0.079564,-12.615416,-5.500714,-31.207123,,,,,,,
1504199503.682844,-0.152658,0.548798,-1.309125,-0.054508,0.077229,0.310219,-0.129735,-0.521662,-0.843230,-0.039973,-0.056066,-0.073243,-12.615416,-5.500714,-31.207123,,,,,,,
1504199503.692854,-0.154276,0.547317,-1.305605,-0.114905,0.002059,0.319854,-0.131218,-0.520398,-0.843782,-0.025566,-0.062442,-0.062423,-12.689360,-5.876203,-31.129517,,,,,,,
1504199503.702864,-0.156631,0.545414,-1.302300,-0.151781,-0.084996,0.300730,-0.133359,-0.518772,-0.844447,-0.012256,-0.050930,-0.057103,-12.689360,-5.876203,-31.129517,,,,,,,
1504199503.712873,-0.159139,0.543064,-1.299763,-0.163861,-0.162622,0.245340,-0.135670,-0.516762,-0.845311,-0.000408,-0.028389,-0.055827,-12.315489,-5.424527,-31.131989,,,,,,,
1504199503.722883,-0.162034,0.541075,-1.297791,-0.171270,-0.194463,0.182407,-0.138282,-0.515058,-0.845928,0.007590,-0.004382,-0.052159,-12.315489,-5.424527,-31.131989,,,,,,,
1504199503.732893,-0.164515,0.539095,-1.296582,-0.181509,-0.180460,0.118320,-0.140547,-0.513360,-0.846586,0.013212,0.009179,-0.042162,-12.991621,-4.977551,-31.137024,,,,,,,
1504199503.742903,-0.166194,0.537037,-1.296058,-0.202142,-0.124824,0.065884,-0.142142,-0.511593,-0.847389,0.014548,0.008419,-0.028511,-12.991621,-4.977551,-31.137024,,,,,,,
1504199503.752913,-0.166364,0.533695,-1.296287,-0.222750,-0.052145,0.035831,-0.142569,-0.508718,-0.849047,0.007482,0.008351,-0.016630,-12.915297,-5.502225,-31.132904,,,,,,,
1504199503.762922,-0.166345,0.531253,-1.296392,-0.242522,0.007696,0.031421,-0.142758,-0.506614,-0.850272,-0.001911,0.009101,-0.004632,-12.915297,-5.502225,-31.132904,,,,,,,
1504199503.772932,-0.166188,0.528923,-1.296394,-0.229736,0.012906,0.043176,-0.142819,-0.504603,-0.851456,-0.008044,0.008678,0.003175,-13.066343,-5.127744,-31.211060,,,,,,,
1504199503.782942,-0.166581,0.526721,-1.296082,-0.204679,-0.038478,0.071062,-0.143337,-0.502701,-0.852494,-0.010639,0.009262,0.004365,-13.066343,-5.127744,-31.211060,,,,,,,
1504199503.792952,-0.168498,0.523924,-1.295078,-0.151030,-0.118855,0.094781,-0.145206,-0.500282,-0.853600,-0.009411,0.018699,0.006096,-12.841246,-5.126874,-31.135529,,,,,,,
1504199503.802961,-0.170785,0.522847,-1.294096,-0.070614,-0.197315,0.103598,-0.147250,-0.499348,-0.853796,-0.012387,0.028676,0.008017,-12.841246,-5.126874,-31.135529,,,,,,,
1504199503.812971,-0.173832,0.522711,-1.292838,0.030280,-0.251433,0.110273,-0.149863,-0.499231,-0.853411,-0.021722,0.035394,0.009783,-13.141493,-4.978375,-31.062378,,,,,,,
1504199503.822981,-0.177101,0.523463,-1.291394,0.114585,-0.249995,0.109349,-0.152586,-0.499883,-0.852546,-0.032747,0.037450,0.007865,-13.141493,-4.978375,-31.062378,,,,,,,
1504199503.832991,-0.182227,0.522645,-1.288687,0.163127,-0.182181,0.108251,-0.157028,-0.499174,-0.852155,-0.043884,0.035795,0.000653,-12.992140,-4.677854,-30.989288,,,,,,,
1504199503.842970,-0.184122,0.524256,-1.286958,0.189518,-0.074788,0.123051,-0.158495,-0.500569,-0.851064,-0.055342,0.032430,-0.009211,-12.992140,-4.677854,-30.989288,,,,,,,
1504199503.852980,-0.184906,0.525835,-1.285015,0.182962,0.049924,0.139899,-0.159017,-0.501936,-0.850161,-0.061107,0.029814,-0.023175,-13.140974,-5.053830,-30.836823,,,,,,,
1504199503.862989,-0.184751,0.527277,-1.282982,0.169742,0.135274,0.146130,-0.158751,-0.503182,-0.849474,-0.063402,0.037392,-0.042219,-13.140974,-5.053830,-30.836823,,,,,,,
1504199503.872999,-0.186523,0.523917,-1.279769,0.136771,0.157953,0.156712,-0.160569,-0.500275,-0.850848,-0.063919,0.046952,-0.065793,-12.991194,-5.052854,-30.986450,,,,,,,
1504199503.883009,-0.186338,0.524732,-1.277447,0.110716,0.125095,0.194084,-0.160336,-0.500981,-0.850477,-0.070392,0.065358,-0.099124,-12.991194,-5.052854,-30.986450,,,,,,,
1504199503.893019,-0.187124,0.525190,-1.274327,0.089472,0.058046,0.281692,-0.160962,-0.501378,-0.850125,-0.082035,0.075612,-0.125019,-12.991194,-5.052854,-30.986450,,,,,,,
1504199503.903029,-0.189308,0.525193,-1.269821,0.067981,-0.007988,0.420534,-0.162818,-0.501380,-0.849770,-0.094827,0.072776,-0.140495,-13.216047,-5.203565,-31.135895,,,,,,,
1504199503.913038,-0.192710,0.524564,-1.263531,0.032841,-0.027056,0.590224,-0.165768,-0.500836,-0.849520,-0.094470,0.073239,-0.148283,-12.991392,-4.977857,-30.987030,,,,,,,
1504199503.923048,-0.197389,0.522234,-1.255160,0.022505,-0.014346,0.756699,-0.169970,-0.498818,-0.849877,-0.094190,0.071404,-0.135749,-12.991392,-4.977857,-30.987030,,,,,,,
1504199503.933058,-0.202480,0.520859,-1.245256,0.038805,-0.018896,0.904037,-0.174432,-0.497626,-0.849672,-0.092002,0.062750,-0.121688,-13.067060,-4.753034,-31.063873,,,,,,,
1504199503.943068,-0.208716,0.519219,-1.233949,0.039864,-0.080830,1.020495,-0.179896,-0.496202,-0.849365,-0.071996,0.051988,-0.127426,-13.067060,-4.753034,-31.063873,,,,,,,
1504199503.953077,-0.216255,0.517225,-1.221761,0.022777,-0.172404,1.091075,-0.186506,-0.494470,-0.848949,-0.041552,0.052957,-0.150288,-13.142286,-4.753079,-31.214050,,,,,,,
1504199503.963087,-0.224686,0.514785,-1.209335,-0.012033,-0.244597,1.109288,-0.193925,-0.492348,-0.848520,-0.014938,0.058190,-0.172857,-13.142286,-4.753079,-31.214050,,,,,,,
1504199503.973097,-0.233289,0.511883,-1.197165,-0.050520,-0.265573,1.091113,-0.201547,-0.489820,-0.848207,0.002619,0.063810,-0.184416,-13.742704,-4.456220,-30.992828,,,,,,,
1504199503.983107,-0.241488,0.508713,-1.185641,-0.078941,-0.252493,1.034468,-0.208865,-0.487054,-0.848030,0.014728,0.064538,-0.186455,-13.742704,-4.456220,-30.992828,,,,,,,
1504199503.993084,-0.248792,0.505336,-1.175283,-0.115474,-0.215854,0.930802,-0.215457,-0.484102,-0.848071,0.018527,0.067201,-0.183530,-13.968565,-4.157086,-31.070618,,,,,,,
1504199504.003094,-0.254884,0.502152,-1.166363,-0.113376,-0.166721,0.802631,-0.221007,-0.481313,-0.848230,0.014067,0.080129,-0.181296,-13.968565,-4.157086,-31.070618,,,,,,,
1504199504.013104,-0.259858,0.499335,-1.158854,-0.097519,-0.129425,0.677707,-0.225571,-0.478842,-0.848427,0.003067,0.086340,-0.174827,-13.969282,-4.006635,-31.296753,,,,,,,
1504199504.023114,-0.264107,0.497299,-1.152413,-0.031827,-0.117073,0.575328,-0.229428,-0.477053,-0.848400,-0.010257,0.089602,-0.167087,-13.969282,-4.006635,-31.296753,,,,,,,
1504199504.033123,-0.268162,0.496483,-1.146567,0.090075,-0.129721,0.500843,-0.232969,-0.476336,-0.847838,-0.028322,0.088168,-0.150316,-14.194349,-3.932797,-31.222839,,,,,,,
1504199504.043133,-0.272269,0.494258,-1.140632,0.261034,-0.114022,0.473362,-0.236733,-0.474379,-0.847893,-0.050681,0.066679,-0.126381,-14.194349,-3.932797,-31.222839,,,,,,,
1504199504.053144,-0.276148,0.496915,-1.134091,0.461961,-0.062411,0.487495,-0.239677,-0.476716,-0.845753,-0.074242,0.037949,-0.096523,-14.344877,-3.858014,-31.448792,,,,,,,
1504199504.063154,-0.279875,0.501411,-1.126589,0.662919,0.003035,0.517615,-0.242232,-0.480663,-0.842785,-0.092240,0.020214,-0.067783,-14.344877,-3.858014,-31.448792,,,,,,,
1504199504.073164,-0.283297,0.507567,-1.118145,0.838440,0.088939,0.546588,-0.244283,-0.486052,-0.839094,-0.110636,0.016112,-0.054140,-14.794996,-3.635633,-31.151581,,,,,,,
1504199504.083172,-0.286284,0.514880,-1.108771,0.960669,0.189121,0.587184,-0.245778,-0.492430,-0.834929,-0.122768,0.020552,-0.049181,-14.794996,-3.635633,-31.151581,,,,,,,
1504199504.093153,-0.288635,0.522825,-1.098503,1.027442,0.303595,0.645805,-0.246619,-0.499330,-0.830572,-0.126947,0.030839,-0.044688,-14.193571,-4.382352,-31.444458,,,,,,,
1504199504.103161,-0.290362,0.530886,-1.087259,1.051482,0.420537,0.719292,-0.246893,-0.506298,-0.826261,-0.128153,0.033336,-0.039370,-14.193571,-4.382352,-31.444458,,,,,,,
1504199504.113171,-0.291474,0.538584,-1.075155,1.027470,0.533610,0.794836,-0.246684,-0.512921,-0.822228,-0.127416,0.029843,-0.032813,-14.192991,-4.607343,-31.442780,,,,,,,
1504199504.123181,-0.292435,0.545886,-1.062044,1.029725,0.602765,0.881178,-0.246388,-0.519176,-0.818382,-0.122097,0.037959,-0.026390,-14.192991,-4.607343,-31.442780,,,,,,,
1504199504.133191,-0.293694,0.553497,-1.047822,1.100844,0.604232,0.957084,-0.246267,-0.525665,-0.814266,-0.108683,0.029679,-0.024937,-13.892393,-4.980557,-31.664246,,,,,,,
1504199504.143200,-0.297067,0.561879,-1.032874,1.185681,0.418098,0.976773,-0.247713,-0.532777,-0.809189,-0.085615,0.039216,-0.044067,-13.892393,-4.980557,-31.664246,,,,,,,
1504199504.153210,-0.301502,0.570328,-1.017174,1.202272,0.391266,1.030219,-0.249954,-0.539908,-0.803755,-0.049530,0.088935,-0.099108,-14.041273,-5.431226,-31.661224,,,,,,,
1504199504.163220,-0.306820,0.578545,-1.000715,1.188971,0.360422,1.080418,-0.252876,-0.546806,-0.798159,-0.020668,0.040397,-0.068052,-14.041273,-5.431226,-31.661224,,,,,,,
1504199504.173230,-0.312515,0.585689,-0.984355,1.058383,0.302897,1.072822,-0.256210,-0.552773,-0.792968,-0.019806,0.063241,-0.104127,-13.665709,-5.878797,-32.031921,,,,,,,
1504199504.183239,-0.318699,0.590881,-0.969310,0.817785,0.198381,1.012815,-0.260206,-0.557093,-0.788632,-0.027392,0.098566,-0.144397,-13.665709,-5.878797,-32.031921,,,,,,,
1504199504.193249,-0.324855,0.593779,-0.955704,0.568859,0.129083,0.967674,-0.264540,-0.559497,-0.785482,-0.031801,0.098529,-0.153635,-13.439268,-6.402936,-31.952423,,,,,,,
1504199504.203259,-0.330749,0.594315,-0.943410,0.323294,0.090643,0.939564,-0.269067,-0.559942,-0.783625,-0.036582,0.067556,-0.111013,-13.439268,-6.402936,-31.952423,,,,,,,
1504199504.213269,-0.336260,0.592658,-0.932252,0.089551,0.068079,0.919986,-0.273688,-0.558568,-0.783005,-0.038629,0.094060,-0.084213,-13.664427,-6.478498,-32.177399,,,,,,,
1504199504.223279,-0.341246,0.588886,-0.922286,-0.134553,0.050764,0.901482,-0.278291,-0.555435,-0.783611,-0.037017,0.095184,-0.032566,-13.664427,-6.478498,-32.177399,,,,,,,
1504199504.233289,-0.346115,0.583027,-0.913167,-0.358186,-0.014553,0.925760,-0.283202,-0.550554,-0.785294,-0.031190,0.076997,0.023453,-13.515699,-6.102384,-32.404907,,,,,,,
1504199504.243298,-0.351345,0.576398,-0.904700,-0.392690,-0.087748,0.880999,-0.288556,-0.545007,-0.787212,-0.001422,0.062677,0.073131,-13.515699,-6.102384,-32.404907,,,,,,,
1504199504.253308,-0.356460,0.569204,-0.897532,-0.476992,-0.146632,0.789160,-0.293938,-0.538962,-0.789380,0.039742,0.066351,0.135861,-13.891981,-5.728620,-32.633636,,,,,,,
1504199504.263318,-0.361561,0.562260,-0.891706,-0.477981,-0.209373,0.672922,-0.299278,-0.533100,-0.791352,0.024544,0.110401,0.185562,-13.891981,-5.728620,-32.633636,,,,,,,
1504199504.273327,-0.366433,0.556388,-0.886765,-0.359200,-0.221979,0.582421,-0.304247,-0.528122,-0.792793,0.019823,0.103424,0.229820,-14.193190,-5.429364,-32.936615,,,,,,,
1504199504.283337,-0.371456,0.552864,-0.881826,-0.099729,-0.255985,0.486864,-0.308898,-0.525127,-0.792984,0.030486,0.092296,0.275345,-14.193190,-5.429364,-32.936615,,,,,,,
1504199504.293347,-0.377052,0.552888,-0.877241,0.218517,-0.325561,0.315686,-0.313326,-0.525147,-0.791231,0.066530,0.091050,0.311846,-14.043715,-5.128980,-32.788513,,,,,,,
1504199504.303357,-0.382307,0.556401,-0.873580,0.512874,-0.336294,0.108072,-0.316790,-0.528133,-0.787858,0.076922,0.132412,0.335999,-14.043715,-5.128980,-32.788513,,,,,,,
1504199504.313366,-0.386973,0.563462,-0.870891,0.811750,-0.320417,-0.107053,-0.319047,-0.534117,-0.782898,0.070039,0.135725,0.377853,-14.342161,-5.655637,-32.635315,,,,,,,
1504199504.323376,-0.391036,0.573842,-0.869081,1.085995,-0.303292,-0.301943,-0.320095,-0.542863,-0.776427,0.074871,0.133225,0.396728,-14.342161,-5.655637,-32.635315,,,,,,,
1504199504.333355,-0.394595,0.587025,-0.868116,1.293794,-0.305895,-0.469160,-0.320077,-0.553887,-0.768609,0.079919,0.131844,0.409661,-14.490995,-6.255857,-32.856201,,,,,,,
1504199504.343365,-0.397964,0.602401,-0.867945,1.461796,-0.335897,-0.616118,-0.319327,-0.566622,-0.759585,0.081396,0.130145,0.412402,-14.490995,-6.255857,-32.856201,,,,,,,
1504199504.353375,-0.401726,0.619552,-0.868348,1.607821,-0.421171,-0.723522,-0.318334,-0.580670,-0.749323,0.079397,0.099042,0.408396,-14.563856,-6.931806,-32.551300,,,,,,,
1504199504.363385,-0.406387,0.638625,-0.868724,1.772797,-0.510908,-0.787122,-0.317387,-0.596092,-0.737523,0.072468,0.060783,0.393865,-14.563856,-6.931806,-32.551300,,,,,,,
1504199504.373394,-0.411701,0.659045,-0.868540,1.907204,-0.519465,-0.795413,-0.316364,-0.612362,-0.724518,0.060764,0.035793,0.378495,-14.635237,-8.282437,-32.391357,,,,,,,
1504199504.383404,-0.417074,0.680155,-0.867504,1.977012,-0.450899,-0.763398,-0.314945,-0.628914,-0.710828,0.053364,-0.000236,0.375394,-14.635237,-8.282437,-32.391357,,,,,,,
1504199504.393414,-0.421802,0.701279,-0.865347,1.992826,-0.291272,-0.683597,-0.312793,-0.645195,-0.697054,0.038348,0.014763,0.346376,-15.005857,-9.710187,-31.856537,,,,,,,
1504199504.403425,-0.425585,0.721228,-0.862011,1.892213,-0.119014,-0.557055,-0.310051,-0.660307,-0.684005,0.020760,0.039092,0.307509,-15.005857,-9.710187,-31.856537,,,,,,,
1504199504.413435,-0.428860,0.739268,-0.857842,1.719439,-0.034600,-0.435819,-0.307286,-0.673747,-0.672042,0.002659,0.029307,0.265426,-14.775862,-11.435071,-31.393036,,,,,,,
1504199504.423443,-0.432157,0.754722,-0.853363,1.483105,-0.028514,-0.317757,-0.305102,-0.685086,-0.661491,-0.019605,0.013593,0.215827,-14.775862,-11.435071,-31.393036,,,,,,,
1504199504.433453,-0.436327,0.767811,-0.848465,1.286696,-0.098417,-0.197358,-0.304042,-0.694562,-0.652029,-0.039189,0.001081,0.183325,-15.072279,-12.861432,-31.383087,,,,,,,
1504199504.443463,-0.442392,0.779084,-0.842454,1.188964,-0.220309,-0.050011,-0.304620,-0.702628,-0.643056,-0.047523,-0.034005,0.176778,-15.072279,-12.861432,-31.383087,,,,,,,
1504199504.453473,-0.451928,0.789644,-0.833940,1.225017,-0.399818,0.135029,-0.307480,-0.710102,-0.633412,-0.040466,-0.074871,0.180272,-15.068693,-13.837918,-30.625763,,,,,,,
1504199504.463482,-0.466099,0.799954,-0.821983,1.320328,-0.623535,0.348001,-0.313118,-0.717324,-0.622417,-0.013588,-0.102210,0.187038,-15.068693,-13.837918,-30.625763,,,,,,,
1504199504.473492,-0.485985,0.810437,-0.806167,1.414162,-0.907967,0.546135,-0.321903,-0.724588,-0.609385,0.013477,-0.102331,0.185664,-15.441252,-14.590360,-30.246033,,,,,,,
1504199504.483502,-0.511230,0.820190,-0.787380,1.487581,-1.238001,0.699482,-0.333709,-0.731275,-0.594874,0.033599,-0.085421,0.170145,-15.441252,-14.590360,-30.246033,,,,,,,
1504199504.493512,-0.541345,0.829366,-0.766357,1.508225,-1.534503,0.791838,-0.347997,-0.737503,-0.578781,0.046499,-0.067795,0.145629,-15.888121,-15.344037,-29.416534,,,,,,,
1504199504.503521,-0.574731,0.837616,-0.744315,1.473223,-1.754829,0.825255,-0.363803,-0.743050,-0.561716,0.055240,-0.057091,0.133966,-15.888121,-15.344037,-29.416534,,,,,,,
1504199504.513531,-0.610194,0.845041,-0.721788,1.436859,-1.892004,0.837175,-0.380318,-0.747998,-0.543927,0.060433,-0.029407,0.118649,-17.235380,-15.802197,-28.366425,,,,,,,
1504199504.523541,-0.646806,0.851630,-0.698751,1.427913,-1.936697,0.847913,-0.396994,-0.752355,-0.525697,0.072592,0.000738,0.101991,-17.235380,-15.802197,-28.366425,,,,,,,
1504199504.533551,-0.684117,0.857561,-0.674929,1.437495,-1.927205,0.867126,-0.413500,-0.756249,-0.507055,0.091051,0.025811,0.089468,-18.356382,-16.634792,-27.087982,,,,,,,
1504199504.543561,-0.721431,0.862949,-0.650711,1.423000,-1.881250,0.852076,-0.429431,-0.759763,-0.488210,0.112445,0.043622,0.076009,-18.356382,-16.634792,-27.087982,,,,,,,
1504199504.553571,-0.757959,0.867574,-0.626972,1.358502,-1.832725,0.812385,-0.444553,-0.762762,-0.469645,0.120914,0.047354,0.058405,-19.554716,-16.492886,-25.742065,,,,,,,
1504199504.563581,-0.793057,0.871629,-0.604755,1.267421,-1.809495,0.713985,-0.458552,-0.765378,-0.451582,0.123576,0.039136,0.033918,-19.554716,-16.492886,-25.742065,,,,,,,
1504199504.573560,-0.825965,0.875319,-0.585062,1.135167,-1.763495,0.564238,-0.471082,-0.767748,-0.434333,0.118818,0.038149,0.007285,-20.900755,-17.401196,-24.613617,,,,,,,
1504199504.583570,-0.855393,0.879083,-0.568545,1.003784,-1.631151,0.378049,-0.481474,-0.770154,-0.418385,0.112577,0.032681,0.000386,-20.900755,-17.401196,-24.613617,,,,,,,
1504199504.593579,-0.880479,0.883118,-0.555189,0.871916,-1.422086,0.198128,-0.489416,-0.772722,-0.404194,0.098502,0.044099,0.003239,-21.498045,-17.631725,-23.188385,,,,,,,
1504199504.603589,-0.900646,0.887521,-0.545045,0.750044,-1.165149,0.016006,-0.494796,-0.775509,-0.392126,0.090194,0.034817,0.016790,-21.498045,-17.631725,-23.188385,,,,,,,
1504199504.613598,-0.916268,0.892582,-0.537339,0.671867,-0.893688,-0.132977,-0.497741,-0.778694,-0.381954,0.071701,0.026268,0.022625,-22.094755,-18.311520,-22.134735,,,,,,,
1504199504.623608,-0.928231,0.898040,-0.531304,0.618564,-0.680031,-0.227378,-0.498865,-0.782107,-0.373420,0.053110,0.021151,0.020850,-22.094755,-18.311520,-22.134735,,,,,,,
1504199504.633618,-0.938175,0.903798,-0.526525,0.568250,-0.613473,-0.301233,-0.498913,-0.785682,-0.365772,0.044797,0.031196,0.005070,-22.317839,-18.539333,-21.233612,,,,,,,
1504199504.643628,-0.947338,0.909779,-0.523153,0.500979,-0.671441,-0.383438,-0.498420,-0.789368,-0.358435,0.037620,0.030259,-0.028528,-22.317839,-18.539333,-21.233612,,,,,,,
1504199504.653637,-0.956368,0.916114,-0.521428,0.439623,-0.797645,-0.477253,-0.497540,-0.793242,-0.351030,0.035931,-0.002871,-0.042250,-22.390577,-18.991161,-20.480377,,,,,,,
1504199504.663647,-0.965439,0.922751,-0.521145,0.376142,-0.909999,-0.550816,-0.496364,-0.797265,-0.343498,0.024913,-0.032157,-0.038826,-22.390577,-18.991161,-20.480377,,,,,,,
1504199504.673657,-0.974344,0.929352,-0.522106,0.309557,-0.979754,-0.575358,-0.495038,-0.801233,-0.336101,0.007916,-0.055472,-0.024296,-22.913664,-19.444576,-19.953308,,,,,,,
1504199504.683667,-0.983526,0.935670,-0.523801,0.256428,-1.091196,-0.583793,-0.493879,-0.804996,-0.328731,-0.004869,-0.085583,0.002925,-22.913664,-19.444576,-19.953308,,,,,,,
1504199504.693676,-0.994515,0.942230,-0.526042,0.254692,-1.341542,-0.636725,-0.493023,-0.808871,-0.320399,0.009731,-0.086713,0.010844,-22.761213,-19.970394,-19.199005,,,,,,,
1504199504.703686,-1.006700,0.948705,-0.528771,0.193966,-1.449756,-0.614224,-0.492454,-0.812662,-0.311561,-0.000908,-0.062949,-0.015237,-22.761213,-19.970394,-19.199005,,,,,,,
1504199504.713696,-1.019455,0.953960,-0.530724,0.178530,-1.417819,-0.462736,-0.492743,-0.815713,-0.303013,-0.007150,-0.097785,0.023503,-22.909407,-20.197720,-18.372650,,,,,,,
1504199504.723706,-1.032367,0.957925,-0.531803,0.147418,-1.368663,-0.349732,-0.493834,-0.818000,-0.294965,0.011656,-0.053353,0.060956,-22.909407,-20.197720,-18.372650,,,,,,,
1504199504.733715,-1.046239,0.961713,-0.532128,0.181042,-1.425430,-0.336764,-0.495192,-0.820173,-0.286533,0.028945,-0.049868,0.090594,-23.131269,-20.950375,-17.542572,,,,,,,
1504199504.743725,-1.060739,0.965857,-0.532156,0.217133,-1.470446,-0.371847,-0.496325,-0.822537,-0.277661,0.026140,-0.075382,0.111080,-23.131269,-20.950375,-17.542572,,,,,,,
1504199504.753735,-1.077873,0.971236,-0.531139,0.307696,-1.670377,-0.452460,-0.497104,-0.825584,-0.267019,0.043353,-0.083199,0.135854,-23.354765,-21.102886,-16.791992,,,,,,,
1504199504.763745,-1.097681,0.977596,-0.529305,0.413199,-1.870428,-0.534114,-0.497611,-0.829156,-0.254723,0.054298,-0.068031,0.110573,-23.354765,-21.102886,-16.791992,,,,,,,
1504199504.773755,-1.120017,0.985003,-0.525651,0.540984,-1.927914,-0.576488,-0.497634,-0.833274,-0.240863,0.044722,-0.067162,0.112354,-23.578108,-21.180828,-15.816925,,,,,,,
1504199504.783764,-1.143295,0.992761,-0.519762,0.647651,-1.787085,-0.559473,-0.497208,-0.837537,-0.226528,0.015000,-0.066256,0.145931,-23.578108,-21.180828,-15.816925,,,,,,,
1504199504.793774,-1.165554,1.000612,-0.512202,0.709474,-1.524396,-0.554492,-0.496068,-0.841801,-0.212807,0.005407,-0.050700,0.187828,-23.500105,-21.483486,-14.314514,,,,,,,
1504199504.803784,-1.187029,1.009270,-0.502959,0.824612,-1.317472,-0.632578,-0.493747,-0.846443,-0.199369,0.027011,-0.001839,0.210569,-23.500105,-21.483486,-14.314514,,,,,,,
1504199504.813794,-1.205235,1.018536,-0.492836,0.797880,-0.807866,-0.660208,-0.489948,-0.851341,-0.187535,0.035068,-0.002770,0.203465,-23.572203,-22.010921,-13.260681,,,,,,,
1504199504.823773,-1.216673,1.026424,-0.483703,0.692066,-0.217851,-0.533343,-0.485747,-0.855453,-0.179585,-0.036363,-0.080232,0.143147,-23.572203,-22.010921,-13.260681,,,,,,,
1504199504.833783,-1.222669,1.032547,-0.475628,0.567598,0.174117,-0.406162,-0.481883,-0.858607,-0.174879,-0.188650,-0.126149,-0.067965,-23.495253,-22.162670,-12.209351,,,,,,,
1504199504.843792,-1.225218,1.037821,-0.469809,0.419861,0.248854,-0.400145,-0.478060,-0.861299,-0.172114,-0.220045,-0.089583,-0.247625,-23.495253,-22.162670,-12.209351,,,,,,,
1504199504.853802,-1.225218,1.043037,-0.467661,0.226381,0.156753,-0.475036,-0.473826,-0.863938,-0.170589,-0.140524,-0.046951,-0.337543,-23.119123,-22.610989,-12.205048,,,,,,,
1504199504.863812,-1.222508,1.048627,-0.470514,0.000426,-0.033051,-0.612788,-0.468815,-0.866739,-0.170222,-0.047207,-0.041723,-0.337469,-23.119123,-22.610989,-12.205048,,,,,,,
1504199504.873822,-1.219895,1.055503,-0.476679,-0.032246,-0.361865,-0.792656,-0.462761,-0.870148,-0.169394,0.052940,-0.046676,-0.273843,-22.818449,-22.834789,-12.127625,,,,,,,
1504199504.883832,-1.222511,1.064404,-0.480129,0.218062,-0.629126,-0.921974,-0.455904,-0.874500,-0.165532,0.132143,-0.058010,-0.138377,-22.818449,-22.834789,-12.127625,,,,,,,
1504199504.893842,-1.230948,1.074662,-0.478995,0.451703,-0.775954,-0.939456,-0.448803,-0.879429,-0.158682,0.139798,-0.167812,0.105337,-22.591261,-23.434689,-11.672577,,,,,,,
1504199504.903852,-1.245585,1.085614,-0.472849,0.676333,-0.969615,-0.936590,-0.441924,-0.884590,-0.149009,0.058013,-0.301003,0.141533,-22.591261,-23.434689,-11.672577,,,,,,,
1504199504.913862,-1.265249,1.097660,-0.462876,0.851558,-1.115906,-1.006477,-0.434574,-0.890143,-0.137075,-0.022152,-0.264275,0.067251,-22.140211,-23.583553,-11.220337,,,,,,,
1504199504.923872,-1.290880,1.109325,-0.447709,1.047452,-1.224210,-0.881061,-0.427936,-0.895398,-0.123016,-0.026791,-0.042682,0.032821,-22.140211,-23.583553,-11.220337,,,,,,,
1504199504.933880,-1.321313,1.120110,-0.427013,1.173324,-1.160357,-0.773148,-0.422098,-0.900149,-0.107547,-0.095450,-0.020613,0.028461,-21.686415,-24.334087,-9.938568,,,,,,,
1504199504.943890,-1.352020,1.128930,-0.404924,1.118891,-1.045020,-0.584515,-0.417434,-0.903955,-0.092810,-0.142517,-0.068335,0.072592,-21.686415,-24.334087,-9.938568,,,,,,,
1504199504.953900,-1.381936,1.134857,-0.382695,1.012654,-0.959167,-0.324404,-0.414754,-0.906474,-0.079275,-0.164958,-0.106649,0.017248,-21.009489,-24.557842,-9.035187,,,,,,,
1504199504.963910,-1.409740,1.138127,-0.361741,0.900442,-0.857220,-0.124107,-0.413870,-0.907850,-0.067239,-0.184397,-0.073870,-0.029411,-21.009489,-24.557842,-9.035187,,,,,,,
1504199504.973919,-1.437104,1.139631,-0.341250,0.856893,-0.888957,-0.000308,-0.414201,-0.908479,-0.055708,-0.120070,-0.008940,-0.019961,-21.307692,-24.785839,-8.209229,,,,,,,
1504199504.983929,-1.463072,1.140642,-0.322434,0.767370,-0.883945,-0.012213,-0.414594,-0.908901,-0.044835,-0.084491,0.028607,-0.018565,-21.307692,-24.785839,-8.209229,,,,,,,
1504199504.993925,-1.486003,1.142025,-0.306644,0.628466,-0.839006,-0.113936,-0.414260,-0.909477,-0.035211,-0.047334,0.055031,0.015481,-21.230574,-25.087292,-7.306763,,,,,,,
1504199505.003935,-1.502686,1.145074,-0.295888,0.411471,-0.617492,-0.319644,-0.412021,-0.910741,-0.028106,-0.056683,0.064824,0.057434,-21.230574,-25.087292,-7.306763,,,,,,,
1504199505.013944,-1.509311,1.150311,-0.291333,0.153378,-0.098281,-0.579318,-0.407432,-0.912891,-0.025083,-0.064736,0.068866,0.127805,-21.155317,-24.788296,-6.633850,,,,,,,
1504199505.023954,-1.502438,1.157935,-0.294471,-0.155878,0.575838,-0.814804,-0.400295,-0.915977,-0.027406,-0.130177,0.091285,0.251329,-21.155317,-24.788296,-6.633850,,,,,,,
1504199505.033964,-1.483052,1.166737,-0.303619,-0.317260,1.266737,-0.936919,-0.391641,-0.919473,-0.034453,-0.207022,0.120263,0.338332,-20.779310,-25.236462,-6.704529,,,,,,,
1504199505.043974,-1.457130,1.176068,-0.314110,-0.306044,1.720615,-0.961182,-0.382076,-0.923101,-0.043617,-0.319401,0.147802,0.403923,-20.779310,-25.236462,-6.704529,,,,,,,
1504199505.053983,-1.428468,1.184756,-0.324692,-0.284495,1.922831,-0.893188,-0.372716,-0.926407,-0.053409,-0.331310,0.163224,0.369312,-20.180204,-25.232571,-7.303040,,,,,,,
1504199505.063993,-1.396878,1.192844,-0.337205,-0.355300,2.022491,-0.870003,-0.363451,-0.929422,-0.063856,-0.287275,0.085916,0.245161,-20.180204,-25.232571,-7.303040,,,,,,,
1504199505.073972,-1.360683,1.200871,-0.352877,-0.420745,2.218078,-0.912090,-0.353594,-0.932354,-0.075408,-0.159360,-0.034046,0.174315,-19.655409,-25.603725,-8.048981,,,,,,,
1504199505.083982,-1.319961,1.209744,-0.370200,-0.384533,2.531198,-1.039601,-0.342204,-0.935526,-0.087684,-0.034612,-0.121085,0.178168,-19.655409,-25.603725,-8.048981,,,,,,,
1504199505.093992,-1.275576,1.219430,-0.389010,-0.370187,2.683529,-1.104956,-0.329291,-0.938903,-0.100140,0.044379,-0.087144,0.168682,-18.907026,-25.672955,-9.246582,,,,,,,
1504199505.104002,-1.230325,1.228882,-0.408808,-0.313862,2.645785,-1.120803,-0.316045,-0.942114,-0.111964,0.024251,-0.044641,0.019801,-18.907026,-25.672955,-9.246582,,,,,,,
1504199505.114012,-1.204284,1.233592,-0.435815,-0.859015,-0.715505,-0.525547,-0.308876,-0.943683,-0.118564,0.011284,-0.136410,-0.183865,-18.232222,-26.267681,-10.365448,,,,,,,
1504199505.124021,-1.181921,1.229387,-0.464086,-1.071474,-0.291448,0.182092,-0.309817,-0.942284,-0.126945,0.093279,-0.365990,-1.008706,-18.232222,-26.267681,-10.365448,,,,,,,
1504199505.134031,-1.158839,1.222650,-0.487869,-0.936368,0.148450,0.324583,-0.312614,-0.940007,-0.136600,0.076622,-0.593868,-0.187710,-18.083235,-26.041409,-10.666748,,,,,,,
1504199505.144041,-1.145972,1.216894,-0.500498,-0.507028,0.090532,0.359586,-0.315755,-0.938028,-0.142839,0.130437,-0.293525,0.218690,-18.083235,-26.041409,-10.666748,,,,,,,
1504199505.154051,-1.144189,1.213002,-0.499656,-0.037298,0.263544,0.367566,-0.318821,-0.936672,-0.144911,0.150807,-0.106770,0.002241,-17.934370,-26.039242,-11.416412,,,,,,,
1504199505.164060,-1.146637,1.210248,-0.494522,0.052487,0.242627,0.301580,-0.321525,-0.935704,-0.145191,0.172019,-0.049160,0.072193,-17.934370,-26.039242,-11.416412,,,,,,,
1504199505.174070,-1.145558,1.207991,-0.493246,-0.090099,0.224731,0.195692,-0.323291,-0.934905,-0.146409,0.194217,-0.014924,-0.009078,-18.085676,-25.514919,-11.420715,,,,,,,
1504199505.184080,-1.141330,1.206652,-0.494330,-0.067097,0.358930,0.077013,-0.323807,-0.934429,-0.148296,0.240006,-0.027211,-0.034703,-18.085676,-25.514919,-11.420715,,,,,,,
1504199505.194090,-1.137618,1.207056,-0.494823,0.027291,0.322087,-0.081801,-0.322912,-0.934573,-0.149338,0.236837,-0.031446,0.012772,-18.310423,-25.665768,-11.495148,,,,,,,
1504199505.204099,-1.135025,1.208845,-0.493266,0.146646,0.392575,-0.154302,-0.321007,-0.935208,-0.149469,0.172585,0.011730,-0.000571,-18.310423,-25.665768,-11.495148,,,,,,,
1504199505.214109,-1.134534,1.210906,-0.489193,0.255696,0.452363,-0.102983,-0.319186,-0.935935,-0.148812,0.027621,0.040290,0.049324,-18.236769,-25.215145,-11.648346,,,,,,,
1504199505.224119,-1.139165,1.212606,-0.480361,0.389714,0.332867,0.003133,-0.318426,-0.936533,-0.146666,-0.137598,0.060175,0.084426,-18.236769,-25.215145,-11.648346,,,,,,,
1504199505.234129,-1.150289,1.213694,-0.466147,0.530718,0.174916,0.144553,-0.319107,-0.936914,-0.142699,-0.239105,0.062173,0.068663,-18.236769,-25.439388,-12.021667,,,,,,,
1504199505.244139,-1.166542,1.214213,-0.448169,0.608143,0.025025,0.211130,-0.320938,-0.937095,-0.137303,-0.216110,0.033149,0.037052,-18.236769,-25.439388,-12.021667,,,,,,,
1504199505.254148,-1.183653,1.214836,-0.429957,0.602802,0.001664,0.174870,-0.322699,-0.937312,-0.131571,-0.111550,0.040904,0.039576,-18.161207,-25.439800,-11.646454,,,,,,,
1504199505.264158,-1.199360,1.216337,-0.413542,0.585971,-0.058786,0.029781,-0.323414,-0.937834,-0.125975,-0.015712,0.046355,0.039366,-18.161207,-25.439800,-11.646454,,,,,,,
1504199505.274168,-1.215751,1.219672,-0.398457,0.612914,-0.295343,-0.189640,-0.322502,-0.938986,-0.119570,-0.009545,0.126029,-0.001356,-17.935575,-25.514385,-11.345337,,,,,,,
1504199505.284178,-1.232873,1.225580,-0.385527,0.611086,-0.566762,-0.472026,-0.319262,-0.941002,-0.112189,-0.065274,0.266945,-0.085915,-17.935575,-25.514385,-11.345337,,,,,,,
1504199505.294187,-1.250176,1.233814,-0.375364,0.577114,-0.841136,-0.732047,-0.313791,-0.943757,-0.104203,-0.080328,0.357606,-0.127563,-18.084669,-25.740505,-11.119049,,,,,,,
1504199505.304197,-1.267564,1.244057,-0.367632,0.542279,-1.060142,-0.944135,-0.306313,-0.947094,-0.095840,-0.080955,0.414120,-0.139695,-18.084669,-25.740505,-11.119049,,,,,,,
1504199505.314207,-1.283839,1.255430,-0.362218,0.477285,-1.123419,-1.063685,-0.297482,-0.950683,-0.087788,-0.101413,0.409072,-0.104198,-17.857176,-26.191296,-10.215057,,,,,,,
1504199505.324186,-1.297341,1.267253,-0.359943,0.360219,-1.125586,-1.126860,-0.287797,-0.954283,-0.080722,-0.130706,0.306105,-0.033673,-17.857176,-26.191296,-10.215057,,,,,,,
1504199505.334196,-1.307734,1.279068,-0.360559,0.280633,-1.083352,-1.146286,-0.277714,-0.957748,-0.074789,-0.125606,0.213821,0.018423,-17.180006,-26.564907,-9.385590,,,,,,,
1504199505.344206,-1.314265,1.290323,-0.363806,0.169684,-0.915194,-1.093405,-0.267752,-0.960924,-0.070234,-0.092798,0.187685,0.066633,-17.180006,-26.564907,-9.385590,,,,,,,
1504199505.354215,-1.316333,1.300842,-0.369630,0.101653,-0.722871,-1.050098,-0.258099,-0.963783,-0.067132,-0.077472,0.201179,0.106057,-16.728468,-26.863934,-8.857208,,,,,,,
1504199505.364225,-1.316160,1.311985,-0.375637,0.140175,-0.507827,-1.156083,-0.247679,-0.966695,-0.064468,-0.050768,0.224248,0.118835,-16.728468,-26.863934,-8.857208,,,,,,,
1504199505.374235,-1.311768,1.325612,-0.383482,0.184061,-0.262812,-1.433964,-0.234637,-0.970093,-0.062174,-0.027341,0.113052,0.122187,-16.277128,-27.312206,-8.702698,,,,,,,
1504199505.384245,-1.304659,1.342223,-0.392154,0.249956,-0.094748,-1.743699,-0.218611,-0.973991,-0.059594,-0.011110,0.057075,0.148935,-16.277128,-27.312206,-8.702698,,,,,,,
1504199505.394254,-1.296228,1.361334,-0.400910,0.324538,0.040168,-1.934873,-0.200145,-0.978143,-0.056378,0.016628,0.118356,0.138729,-15.226088,-27.458385,-8.248993,,,,,,,
1504199505.404264,-1.283746,1.381473,-0.412847,0.333914,0.112606,-1.987287,-0.180494,-0.982132,-0.053282,-0.004092,0.175323,0.075316,-15.226088,-27.458385,-8.248993,,,,,,,
1504199505.414274,-1.270091,1.401398,-0.426181,0.344785,0.014464,-1.971084,-0.161024,-0.985686,-0.049935,-0.088930,0.176635,0.050774,-14.173796,-28.278973,-8.090210,,,,,,,
1504199505.424284,-1.248620,1.419262,-0.448458,0.148732,-0.072610,-1.735374,-0.143189,-0.988541,-0.047797,-0.154678,0.138870,-0.010507,-14.173796,-28.278973,-8.090210,,,,,,,
1504199505.434294,-1.215379,1.434090,-0.484003,-0.029514,-0.226922,-1.541144,-0.127763,-0.990670,-0.047423,-0.231993,0.196084,-0.110505,-12.897139,-28.798687,-7.858124,,,,,,,
1504199505.444303,-1.161788,1.448387,-0.539519,-0.160079,-0.055275,-1.614256,-0.112032,-0.992517,-0.048561,-0.075788,0.139871,-0.066918,-12.897139,-28.798687,-7.858124,,,,,,,
1504199505.454313,-1.079934,1.463330,-0.620629,-0.220047,0.233073,-1.750429,-0.094595,-0.994231,-0.050561,0.252859,-0.209459,0.217873,-11.995573,-29.245235,-7.552490,,,,,,,
1504199505.464323,-0.959029,1.478377,-0.738110,-0.176589,0.441832,-2.000494,-0.075550,-0.995732,-0.053002,0.212650,-0.188670,0.203622,-11.995573,-29.245235,-7.552490,,,,,,,
1504199505.474333,-0.797875,1.496369,-0.894399,0.222308,0.577265,-2.183635,-0.053232,-0.997232,-0.051920,0.195627,-0.221015,0.229425,-10.720961,-29.089504,-7.550446,,,,,,,
1504199505.484342,-0.618626,1.510311,-1.068816,0.305041,0.465179,-1.622907,-0.035055,-0.998171,-0.049246,0.228064,-0.313505,0.279120,-10.720961,-29.089504,-7.550446,,,,,,,
1504199505.494352,-0.495064,1.518586,-1.189534,0.367967,0.288014,-0.831541,-0.024793,-0.998637,-0.045921,-0.257571,-0.247060,0.032127,-9.518217,-30.134274,-7.464630,,,,,,,
1504199505.504362,-0.460944,1.523407,-1.222582,0.355975,0.096746,-0.230277,-0.021071,-0.998877,-0.042428,-0.401262,-0.241922,-0.060340,-9.518217,-30.134274,-7.464630,,,,,,,
1504199505.514372,-0.524075,1.526174,-1.157942,0.403192,0.170438,0.261748,-0.022322,-0.999005,-0.038621,-0.257493,-0.260135,-0.026290,-8.693708,-29.756161,-7.165405,,,,,,,
1504199505.524381,-0.680531,1.526994,-0.999496,0.496531,0.168270,0.583201,-0.027552,-0.999041,-0.034034,-0.150000,-0.234052,0.084128,-8.693708,-29.756161,-7.165405,,,,,,,
1504199505.534391,-0.896674,1.526741,-0.781832,0.708839,0.120555,0.723483,-0.034407,-0.999030,-0.027491,-0.095491,-0.173883,0.116618,-8.842619,-30.057278,-6.938538,,,,,,,
1504199505.544401,-1.133441,1.524330,-0.543809,0.814014,0.094064,0.771745,-0.042077,-0.998921,-0.019673,-0.014792,-0.070675,0.084416,-8.842619,-30.057278,-6.938538,,,,,,,
1504199505.554411,-1.356935,1.520446,-0.318810,0.936521,0.148558,0.683267,-0.049182,-0.998733,-0.010682,-0.035916,-0.026887,0.033951,-9.367872,-29.685543,-6.492645,,,,,,,
1504199505.564420,-1.557421,1.515418,-0.115488,1.030799,0.277873,0.598877,-0.055345,-0.998467,-0.000740,-0.028151,0.034081,0.040657,-9.367872,-29.685543,-6.492645,,,,,,,
1504199505.574400,-1.732678,1.509030,0.062721,1.110971,0.257032,0.535009,-0.060920,-0.998093,0.009949,-0.018166,0.028428,0.059967,-9.817381,-29.613461,-6.044312,,,,,,,
1504199505.584410,-1.885943,1.502050,0.218973,1.167416,0.286556,0.388821,-0.065309,-0.997638,0.021292,-0.013853,0.025851,0.025690,-9.817381,-29.613461,-6.044312,,,,,,,
1504199505.594419,-2.019832,1.494767,0.356256,1.402870,0.013051,0.232803,-0.068426,-0.997111,0.032972,-0.016626,0.077220,0.053209,-10.116590,-29.391598,-5.146698,,,,,,,
1504199505.604429,-2.161492,1.485644,0.495995,1.288269,-0.188447,0.211612,-0.070638,-0.996377,0.047367,-0.103145,-0.157722,0.014751,-10.116590,-29.391598,-5.146698,,,,,,,
1504199505.614439,-2.210504,1.480135,0.545681,0.516835,0.070460,0.205549,-0.072635,-0.995893,0.054047,-0.066265,-0.181918,-0.136216,-10.264402,-29.768917,-4.319244,,,,,,,
1504199505.624449,-2.215395,1.476837,0.551212,0.163403,0.063735,0.249779,-0.074995,-0.995589,0.056375,0.046629,-0.257508,0.054099,-10.264402,-29.768917,-4.319244,,,,,,,
1504199505.634458,-2.202592,1.473542,0.538395,0.092727,-0.029577,0.366168,-0.078358,-0.995274,0.057348,0.030903,-0.224147,0.094004,-10.264418,-29.320415,-3.572632,,,,,,,
1504199505.644468,-2.189590,1.469036,0.523906,0.158482,-0.143188,0.477492,-0.082749,-0.994827,0.058925,0.030365,-0.226944,0.150014,-10.264418,-29.320415,-3.572632,,,,,,,
1504199505.654478,-2.176946,1.464242,0.509024,0.156756,-0.242246,0.450979,-0.087406,-0.994328,0.060590,0.030841,-0.257411,0.125613,-10.564146,-29.471615,-3.647217,,,,,,,
1504199505.664488,-2.174414,1.459942,0.504363,0.216065,-0.241540,0.326194,-0.091078,-0.993862,0.062795,0.061964,-0.191776,0.056178,-10.564146,-29.471615,-3.647217,,,,,,,
1504199505.674497,-2.190932,1.457425,0.518609,0.290032,-0.249300,0.029598,-0.092064,-0.993580,0.065744,0.149132,-0.098766,0.034705,-10.939741,-29.098751,-3.425964,,,,,,,
1504199505.684507,-2.226599,1.457311,0.550490,0.280432,-0.427943,-0.257235,-0.089751,-0.993567,0.069055,0.188415,0.018516,-0.004312,-10.939741,-29.098751,-3.425964,,,,,,,
1504199505.694517,-2.258116,1.458103,0.577193,0.148336,-0.523845,-0.238081,-0.086922,-0.993657,0.071349,0.153725,0.083943,-0.085723,-11.164854,-29.099606,-3.501526,,,,,,,
1504199505.704527,-2.273025,1.459478,0.586289,-0.071472,-0.610561,-0.159321,-0.084806,-0.993810,0.071755,0.075712,-0.076014,-0.092705,-11.164854,-29.099606,-3.501526,,,,,,,
1504199505.714536,-2.272898,1.461899,0.579044,-0.245472,-0.735966,-0.128447,-0.082978,-0.994076,0.070190,0.076539,-0.125583,-0.095657,-10.789900,-28.948376,-3.276703,,,,,,,
1504199505.724546,-2.270920,1.464721,0.569385,-0.261596,-0.768837,-0.157237,-0.080970,-0.994379,0.068218,0.040825,-0.074362,-0.102535,-10.789900,-28.948376,-3.276703,,,,,,,
1504199505.734556,-2.272571,1.467915,0.562987,-0.255221,-0.811448,-0.220128,-0.078431,-0.994712,0.066300,0.012071,0.008812,-0.065003,-10.640165,-29.022091,-3.575806,,,,,,,
1504199505.744566,-2.279522,1.470597,0.562420,-0.130911,-0.716612,-0.177383,-0.075944,-0.994984,0.065108,0.001694,0.069462,-0.073424,-10.640165,-29.022091,-3.575806,,,,,,,
1504199505.754576,-2.287332,1.471778,0.563730,-0.043249,-0.628999,-0.071713,-0.074546,-0.995102,0.064927,-0.007714,0.044494,-0.045411,-10.489714,-29.246273,-3.648712,,,,,,,
1504199505.764585,-2.294310,1.473092,0.564100,-0.115916,-0.666723,-0.109132,-0.073111,-0.995231,0.064579,-0.045541,-0.014489,-0.036701,-10.489714,-29.246273,-3.648712,,,,,,,
1504199505.774595,-2.297342,1.475287,0.560361,-0.184004,-0.668251,-0.150875,-0.071283,-0.995442,0.063350,-0.035224,0.049336,-0.079067,-10.790129,-28.948071,-3.426697,,,,,,,
1504199505.784605,-2.305339,1.477737,0.562236,-0.127570,-0.585537,-0.209631,-0.068963,-0.995673,0.062283,-0.045325,0.058600,-0.038449,-10.790129,-28.948071,-3.426697,,,,,,,
1504199505.794615,-2.327158,1.480138,0.579102,-0.030177,-0.477543,-0.311056,-0.065849,-0.995893,0.062132,-0.069191,0.047010,0.023195,-11.015272,-29.023632,-3.651703,,,,,,,
1504199505.804624,-2.357577,1.482751,0.605668,-0.016355,-0.372126,-0.346442,-0.062091,-0.996126,0.062263,-0.095181,0.033007,0.041634,-11.015272,-29.023632,-3.651703,,,,,,,
1504199505.814634,-2.379079,1.485736,0.623553,-0.145591,-0.370028,-0.315715,-0.058684,-0.996385,0.061433,-0.115373,-0.011062,0.024321,-10.415312,-28.871380,-3.426361,,,,,,,
1504199505.824644,-2.387193,1.490122,0.628125,-0.338345,-0.332197,-0.327857,-0.055190,-0.996748,0.058723,-0.114030,-0.029971,-0.005851,-10.415312,-28.871380,-3.426361,,,,,,,
1504199505.834623,-2.374774,1.495304,0.613316,-0.483824,-0.200006,-0.254691,-0.052331,-0.997152,0.054312,-0.064475,0.021871,0.005823,-10.339903,-29.170605,-3.648926,,,,,,,
1504199505.844633,-2.349288,1.500730,0.586951,-0.525308,-0.044098,-0.244364,-0.049845,-0.997546,0.049161,-0.055441,0.026172,0.060367,-10.339903,-29.170605,-3.648926,,,,,,,
1504199505.854643,-2.319013,1.505987,0.556917,-0.502163,0.059057,-0.227427,-0.047466,-0.997901,0.044061,-0.051778,0.082831,0.074500,-10.115171,-29.243984,-3.947815,,,,,,,
1504199505.864652,-2.282402,1.510119,0.521365,-0.413493,0.128564,-0.138802,-0.045923,-0.998160,0.039601,-0.070120,0.067572,0.051021,-10.115171,-29.243984,-3.947815,,,,,,,
1504199505.874662,-2.259874,1.512786,0.500565,-0.207113,0.192920,-0.127884,-0.044750,-0.998318,0.036864,-0.103276,-0.014744,0.031633,-9.890013,-29.392681,-4.096130,,,,,,,
1504199505.884672,-2.277568,1.513715,0.520758,0.112587,0.264902,-0.149872,-0.043384,-0.998371,0.037047,-0.070401,0.018772,-0.000090,-9.890013,-29.392681,-4.096130,,,,,,,
1504199505.894682,-2.342129,1.512515,0.588339,0.449087,0.296264,-0.182434,-0.041763,-0.998302,0.040605,-0.052673,0.065761,-0.044938,-9.890547,-29.317226,-4.321686,,,,,,,
1504199505.904691,-2.428340,1.510752,0.676644,0.426915,0.119678,-0.298508,-0.039263,-0.998198,0.045381,-0.078397,0.026335,-0.087556,-9.890547,-29.317226,-4.321686,,,,,,,
1504199505.914701,-2.450853,1.519532,0.692903,-1.099516,-0.938175,-0.782821,-0.032647,-0.998686,0.039496,-0.113548,0.002135,-0.147604,-9.664259,-29.467419,-3.720001,,,,,,,
1504199505.924711,-2.432879,1.538240,0.666020,-1.511133,-0.776631,-1.210780,-0.021186,-0.999470,0.024713,-0.095635,0.068608,-0.279565,-9.664259,-29.467419,-3.720001,,,,,,,
1504199505.934721,-2.393423,1.559627,0.622502,-1.693372,-0.318883,-1.375215,-0.007598,-0.999938,0.008186,0.003219,0.168044,0.107552,-9.289381,-29.689831,-4.167389,,,,,,,
1504199505.944731,0.537201,1.559174,-2.309880,-1.838031,-0.090784,-1.312891,0.005947,-0.999932,-0.009985,-0.033856,0.117379,0.317358,-9.289381,-29.689831,-4.167389,,,,,,,
1504199505.954740,0.579411,1.539461,-2.350555,-1.554366,0.195373,-1.039649,0.017154,-0.999509,-0.026216,-0.121845,0.081723,0.257891,-8.466642,-29.458889,-5.292053,,,,,,,
1504199505.964750,0.556678,1.524551,-2.325657,-1.213893,0.209176,-0.613190,0.024426,-0.998931,-0.039249,-0.148312,-0.038148,0.299610,-8.466642,-29.458889,-5.292053,,,,,,,
1504199505.974760,0.524581,1.514663,-2.291848,-0.839301,0.162054,-0.279429,0.028100,-0.998425,-0.048560,-0.144768,-0.168872,0.188178,-7.942518,-29.604885,-6.114685,,,,,,,
1504199505.984770,0.498785,1.508997,-2.264838,-0.487411,0.105706,-0.115407,0.029544,-0.998091,-0.054236,-0.064532,-0.178591,0.095709,-7.942518,-29.604885,-6.114685,,,,,,,
1504199505.994783,0.494533,1.505599,-2.260088,-0.258512,0.024998,-0.145823,0.030922,-0.997875,-0.057345,-0.002083,-0.082416,-0.000562,-7.943296,-29.603832,-6.639679,,,,,,,
1504199506.004793,0.507492,1.503725,-2.273188,-0.089099,-0.018996,-0.170002,0.032571,-0.997752,-0.058574,0.023444,0.022883,-0.085774,-7.943296,-29.603832,-6.639679,,,,,,,
1504199506.014803,0.525916,1.502629,-2.292086,-0.022240,-0.055790,-0.157012,0.034194,-0.997678,-0.058910,-0.031142,0.009442,-0.067143,-7.493910,-29.451519,-6.789703,,,,,,,
1504199506.024813,0.535510,1.501487,-2.302900,-0.074311,-0.136391,-0.114264,0.035339,-0.997599,-0.059559,-0.029708,-0.040151,-0.004360,-7.493910,-29.451519,-6.789703,,,,,,,
1504199506.034822,0.538422,1.499517,-2.307555,-0.180197,-0.185575,-0.141046,0.036520,-0.997461,-0.061143,-0.023031,-0.053610,0.059037,-7.569090,-29.376842,-6.790436,,,,,,,
1504199506.044832,0.538394,1.495807,-2.309805,-0.361575,-0.237274,-0.224526,0.038415,-0.997190,-0.064320,-0.000970,-0.021548,0.118825,-7.569090,-29.376842,-6.790436,,,,,,,
1504199506.054842,0.532882,1.489571,-2.307429,-0.611557,-0.343795,-0.331512,0.041219,-0.996703,-0.069886,0.005519,-0.024202,0.125657,-7.568907,-29.451855,-6.789886,,,,,,,
1504199506.064852,0.525164,1.480614,-2.303617,-0.846192,-0.405676,-0.449224,0.045152,-0.995936,-0.077924,-0.015977,-0.036931,0.090970,-7.568907,-29.451855,-6.789886,,,,,,,
1504199506.074862,0.510101,1.470573,-2.292552,-0.940417,-0.404971,-0.381074,0.048853,-0.994982,-0.087318,-0.018778,-0.018110,0.066764,-7.345381,-29.224636,-7.391022,,,,,,,
1504199506.084841,0.488923,1.461246,-2.274639,-0.883830,-0.312875,-0.241309,0.051350,-0.994005,-0.096522,-0.007496,-0.068769,0.058115,-7.345381,-29.224636,-7.391022,,,,,,,
1504199506.094851,0.465627,1.453843,-2.254002,-0.714527,-0.272849,-0.108728,0.052391,-0.993169,-0.104264,0.045373,-0.114894,0.054139,-7.120863,-29.297726,-7.839935,,,,,,,
1504199506.104860,0.448605,1.448164,-2.239801,-0.542985,-0.300904,-0.106247,0.053054,-0.992490,-0.110222,0.066774,-0.124896,0.015800,-7.120863,-29.297726,-7.839935,,,,,,,
1504199506.114870,0.441920,1.443036,-2.236355,-0.494794,-0.339561,-0.204296,0.054491,-0.991850,-0.115173,0.042020,-0.063707,-0.033082,-7.421537,-29.298183,-8.290649,,,,,,,
1504199506.124880,0.436723,1.436646,-2.235049,-0.612371,-0.405659,-0.267360,0.056572,-0.991015,-0.121195,0.033653,-0.018094,-0.038382,-7.421537,-29.298183,-8.290649,,,,,,,
1504199506.134890,0.427039,1.428951,-2.229964,-0.749581,-0.478069,-0.254661,0.058552,-0.989957,-0.128675,0.039394,-0.035571,-0.023074,-7.271620,-29.446911,-8.589172,,,,,,,
1504199506.144899,0.413522,1.421258,-2.221516,-0.739604,-0.518720,-0.180922,0.059866,-0.988840,-0.136424,0.066309,-0.057638,0.038905,-7.271620,-29.446911,-8.589172,,,,,,,
1504199506.154909,0.399905,1.414855,-2.213043,-0.594826,-0.522106,-0.120890,0.060467,-0.987866,-0.143056,0.095340,-0.052951,0.104115,-7.272413,-29.221615,-8.740875,,,,,,,
1504199506.164919,0.390864,1.410470,-2.208772,-0.375755,-0.471708,-0.109925,0.060821,-0.987175,-0.147601,0.105530,-0.040886,0.132632,-7.272413,-29.221615,-8.740875,,,,,,,
1504199506.174929,0.386477,1.407434,-2.209032,-0.262583,-0.467303,-0.118276,0.061302,-0.986686,-0.150641,0.079460,0.008521,0.100134,-7.273832,-29.144970,-9.566467,,,,,,,
1504199506.184938,0.383004,1.405006,-2.210429,-0.203052,-0.491242,-0.112794,0.061674,-0.986288,-0.153075,0.063982,0.033804,0.025313,-7.273832,-29.144970,-9.566467,,,,,,,
1504199506.194948,0.379758,1.402494,-2.212240,-0.228709,-0.504871,-0.124556,0.062095,-0.985870,-0.155575,0.033303,0.024735,-0.008472,-7.123915,-29.069439,-9.491669,,,,,,,
1504199506.204958,0.375502,1.399406,-2.213239,-0.308925,-0.528720,-0.123585,0.062549,-0.985349,-0.158669,-0.005710,0.026181,-0.000297,-7.123915,-29.069439,-9.491669,,,,,,,
1504199506.214968,0.368802,1.395814,-2.211519,-0.353545,-0.486824,-0.094917,0.062759,-0.984730,-0.162385,-0.048050,0.018650,0.007096,-7.649214,-28.996655,-9.568512,,,,,,,
1504199506.224977,0.360841,1.392172,-2.207936,-0.363944,-0.432427,-0.061941,0.062730,-0.984089,-0.166233,-0.069459,0.021351,0.017765,-7.649214,-28.996655,-9.568512,,,,,,,
1504199506.234987,0.350562,1.388257,-2.202096,-0.429493,-0.471347,-0.031031,0.062341,-0.983386,-0.170486,-0.065759,0.027438,-0.012283,-7.499067,-29.145687,-9.717010,,,,,,,
1504199506.244997,0.338326,1.383313,-2.194260,-0.535916,-0.439564,-0.034474,0.061863,-0.982476,-0.175821,-0.067295,0.030038,-0.076545,-7.499067,-29.145687,-9.717010,,,,,,,
1504199506.255007,0.325361,1.377475,-2.185389,-0.629597,-0.412155,-0.032550,0.061411,-0.981371,-0.182040,-0.092371,0.038287,-0.071027,-7.500273,-28.845074,-10.019257,,,,,,,
1504199506.265017,0.315346,1.371630,-2.178310,-0.581409,-0.273995,-0.060463,0.061363,-0.980232,-0.188096,-0.091636,0.045539,-0.001098,-7.500273,-28.845074,-10.019257,,,,,,,
1504199506.275026,0.308849,1.366310,-2.173763,-0.510184,-0.185051,-0.079709,0.061724,-0.979165,-0.193456,-0.071123,0.044946,0.086522,-7.575117,-28.995113,-10.168304,,,,,,,
1504199506.285036,0.304701,1.361924,-2.170661,-0.401670,-0.084723,-0.070091,0.062209,-0.978265,-0.197806,-0.065703,0.022928,0.094229,-7.575117,-28.995113,-10.168304,,,,,,,
1504199506.295046,0.304705,1.359036,-2.170768,-0.248262,0.007807,-0.089202,0.063057,-0.977663,-0.200499,-0.079460,0.068529,0.082503,-7.576246,-28.769375,-10.545013,,,,,,,
1504199506.305056,0.305817,1.357498,-2.171573,-0.109632,0.021545,-0.052694,0.063732,-0.977338,-0.201863,-0.099468,0.143888,0.034642,-7.576246,-28.769375,-10.545013,,,,,,,
1504199506.315065,0.305582,1.356863,-2.171040,-0.047884,0.043350,0.009284,0.063872,-0.977203,-0.202470,-0.142592,0.087341,-0.004150,-7.351591,-28.767910,-10.769470,,,,,,,
1504199506.325075,0.304490,1.357102,-2.169009,0.032354,0.101246,0.058421,0.063580,-0.977254,-0.202316,-0.131650,0.037282,0.026596,-7.351591,-28.767910,-10.769470,,,,,,,
1504199506.335085,0.303535,1.357886,-2.166878,0.061199,0.110591,0.065926,0.063158,-0.977420,-0.201646,-0.056383,-0.042493,0.084367,-7.201582,-28.767239,-10.769073,,,,,,,
1504199506.345064,0.302689,1.358307,-2.165128,0.010858,0.071603,0.042425,0.062865,-0.977509,-0.201307,-0.001006,-0.094207,0.080350,-7.201582,-28.767239,-10.769073,,,,,,,
1504199506.355074,0.302501,1.358165,-2.164270,-0.019938,0.064440,0.001823,0.062868,-0.977479,-0.201451,0.020567,-0.107390,0.073933,-7.576551,-28.694225,-10.620575,,,,,,,
1504199506.365084,0.305051,1.358160,-2.165976,0.014666,0.092975,-0.045133,0.063383,-0.977478,-0.201294,0.033739,-0.048096,0.108826,-7.576551,-28.694225,-10.620575,,,,,,,
1504199506.375093,0.308576,1.357840,-2.168933,-0.029245,0.052876,-0.076093,0.064187,-0.977410,-0.201367,0.034094,0.029473,0.117383,-7.351439,-28.693356,-10.545013,,,,,,,
1504199506.385103,0.312311,1.356943,-2.172490,-0.067724,0.020116,-0.103860,0.065209,-0.977220,-0.201961,0.036918,0.050493,0.072139,-7.351439,-28.693356,-10.545013,,,,,,,
1504199506.395113,0.316011,1.356093,-2.176459,-0.043588,-0.032294,-0.106928,0.066213,-0.977040,-0.202507,0.046641,0.035084,0.069725,-7.501173,-28.843884,-10.619263,,,,,,,
1504199506.405123,0.320713,1.355841,-2.182110,0.032779,-0.102165,-0.128021,0.067243,-0.976986,-0.202428,0.052310,-0.021137,0.078740,-7.501173,-28.843884,-10.619263,,,,,,,
1504199506.415132,0.327265,1.356204,-2.190336,0.107135,-0.164547,-0.161939,0.068453,-0.977063,-0.201647,0.043317,-0.030948,0.044558,-7.501616,-28.619030,-10.545959,,,,,,,
1504199506.425142,0.335218,1.356669,-2.200679,0.115327,-0.232770,-0.202365,0.069906,-0.977162,-0.200667,0.018519,-0.035274,0.014113,-7.501616,-28.619030,-10.545959,,,,,,,
1504199506.435152,0.344402,1.357159,-2.213052,0.140518,-0.308596,-0.240614,0.071584,-0.977266,-0.199566,0.004481,-0.059492,-0.001087,-7.126783,-28.691906,-10.769470,,,,,,,
1504199506.445162,0.355343,1.357568,-2.227653,0.149054,-0.338453,-0.288580,0.073624,-0.977353,-0.198396,0.009384,-0.057300,0.006960,-7.126783,-28.691906,-10.769470,,,,,,,
1504199506.455172,0.368297,1.357740,-2.244371,0.135437,-0.336160,-0.335573,0.076127,-0.977389,-0.197268,0.009017,-0.018048,0.029956,-7.126783,-28.691906,-10.769470,,,,,,,
1504199506.465181,0.382063,1.357228,-2.261883,0.072671,-0.334542,-0.369842,0.079022,-0.977281,-0.196666,0.001834,0.011384,0.040065,-7.275450,-28.993328,-10.392578,,,,,,,
1504199506.475191,0.396429,1.356227,-2.279900,0.052656,-0.318367,-0.395523,0.082217,-0.977068,-0.196413,0.018247,0.012362,0.046175,-6.975004,-28.992565,-10.091858,,,,,,,
1504199506.485201,0.410794,1.355016,-2.297585,0.032594,-0.289435,-0.391339,0.085502,-0.976810,-0.196297,0.036919,0.010776,0.068337,-6.975004,-28.992565,-10.091858,,,,,,,
1504199506.495211,0.422876,1.353397,-2.312935,-0.033737,-0.292118,-0.359427,0.088516,-0.976462,-0.196692,0.034942,0.002447,0.052679,-6.900419,-28.916943,-10.242218,,,,,,,
1504199506.505220,0.432768,1.351408,-2.325972,-0.068993,-0.280136,-0.330689,0.091272,-0.976031,-0.197568,0.015784,-0.009504,0.006483,-6.900419,-28.916943,-10.242218,,,,,,,
1504199506.515230,0.441833,1.349439,-2.337856,-0.067722,-0.243934,-0.313673,0.093880,-0.975600,-0.198470,-0.002373,-0.008683,0.010451,-6.674971,-29.140774,-10.315002,,,,,,,
1504199506.525240,0.450866,1.347577,-2.349200,-0.056672,-0.189690,-0.303075,0.096461,-0.975190,-0.199248,-0.020320,-0.010421,0.031081,-6.674971,-29.140774,-10.315002,,,,,,,
1504199506.535250,0.460172,1.345830,-2.360097,-0.043342,-0.115222,-0.289307,0.099068,-0.974802,-0.199869,-0.054649,-0.043265,0.033701,-6.599928,-29.065731,-10.165344,,,,,,,
1504199506.545259,0.444678,1.350782,-2.345944,0.003154,-0.017630,-0.259453,0.093881,-0.975894,-0.197019,-0.068033,-0.063336,0.017850,-6.599928,-29.065731,-10.165344,,,,,,,
1504199506.555269,0.455402,1.350376,-2.356294,0.081616,0.088227,-0.205066,0.096163,-0.975806,-0.196357,-0.063448,-0.048654,0.009452,-6.524778,-29.215099,-10.314056,,,,,,,
1504199506.565279,0.464616,1.350906,-2.364705,0.145375,0.109990,-0.118534,0.097736,-0.975921,-0.195000,-0.054264,-0.045197,0.001992,-6.524778,-29.215099,-10.314056,,,,,,,
1504199506.575289,0.472003,1.352429,-2.370839,0.212433,0.146639,-0.027753,0.098498,-0.976252,-0.192949,-0.046786,-0.036794,-0.017485,-6.224791,-29.213757,-10.313324,,,,,,,
1504199506.585299,0.452317,1.355831,-2.350333,0.249199,0.137719,0.068425,0.093229,-0.976984,-0.191862,-0.045865,-0.001837,-0.010805,-6.224791,-29.213757,-10.313324,,,,,,,
1504199506.595308,0.452554,1.358446,-2.349126,0.214660,0.143239,0.156950,0.092157,-0.977538,-0.189542,-0.046899,0.034011,-0.001620,-6.225355,-28.988750,-10.315002,,,,,,,
1504199506.605288,0.450466,1.361612,-2.345141,0.275593,0.204465,0.231666,0.090413,-0.978201,-0.186947,-0.045796,0.064230,0.023830,-6.225355,-28.988750,-10.315002,,,,,,,
1504199506.615297,0.451185,1.366497,-2.343209,0.456371,0.275415,0.252135,0.088463,-0.979203,-0.182579,-0.043449,0.091584,0.078956,-6.225660,-28.689342,-10.017242,,,,,,,
1504199506.625307,0.450970,1.372488,-2.339986,0.522130,0.281176,0.339766,0.085865,-0.980401,-0.177315,-0.044590,0.107614,0.120094,-6.225660,-28.689342,-10.017242,,,,,,,
1504199506.635317,0.448323,1.378921,-2.334899,0.534133,0.209635,0.385811,0.082660,-0.981648,-0.171854,-0.040454,0.058171,0.104502,-6.224531,-29.139355,-10.013855,,,,,,,
1504199506.645327,0.445153,1.388401,-2.329797,0.500365,0.158678,0.445626,0.078104,-0.983412,-0.163708,-0.010141,-0.013094,0.042386,-6.224531,-29.139355,-10.013855,,,,,,,
1504199506.655336,0.433705,1.394655,-2.316991,0.457049,0.099327,0.478745,0.073639,-0.984527,-0.159008,-0.001098,-0.041245,0.019268,-6.223249,-29.290554,-9.412720,,,,,,,
1504199506.665346,0.419613,1.400929,-2.302094,0.485334,0.050050,0.504498,0.068873,-0.985607,-0.154385,-0.011866,-0.030079,0.014645,-6.223249,-29.290554,-9.412720,,,,,,,
1504199506.675356,0.407222,1.407726,-2.289409,0.544008,0.011268,0.443826,0.064300,-0.986733,-0.149073,-0.021072,0.005822,0.019388,-6.672789,-29.293163,-9.113831,,,,,,,
1504199506.685366,0.398080,1.414848,-2.279617,0.576536,0.051532,0.404319,0.060209,-0.987865,-0.143172,-0.012357,0.066432,0.032546,-6.672789,-29.293163,-9.113831,,,,,,,
1504199506.695375,0.390125,1.421314,-2.270925,0.524561,0.063725,0.362579,0.056637,-0.988848,-0.137736,-0.010907,0.086764,0.044749,-7.197187,-29.221569,-8.590698,,,,,,,
1504199506.705385,0.381211,1.427067,-2.261136,0.466186,0.088737,0.341085,0.053290,-0.989689,-0.132953,0.002283,0.077198,0.037555,-7.197187,-29.221569,-8.590698,,,,,,,
1504199506.715395,0.372863,1.432212,-2.251691,0.414190,0.100926,0.303615,0.050323,-0.990413,-0.128649,0.012544,0.039378,0.028323,-7.196806,-29.371578,-8.589569,,,,,,,
1504199506.725405,0.362897,1.436357,-2.241062,0.302855,0.036870,0.275782,0.047580,-0.990977,-0.125306,0.027905,-0.012701,0.007752,-7.196806,-29.371578,-8.589569,,,,,,,
1504199506.735414,0.354244,1.437615,-2.232501,0.089766,-0.067913,0.261712,0.046062,-0.991145,-0.124543,0.020772,-0.076925,-0.020568,-7.196501,-29.222469,-8.140686,,,,,,,
1504199506.745424,0.342808,1.438809,-2.220398,0.096605,0.074897,0.188889,0.044237,-0.991302,-0.123947,0.000899,-0.085816,-0.019058,-7.196501,-29.222469,-8.140686,,,,,,,
1504199506.755434,0.334225,1.440681,-2.210880,0.133143,0.088481,0.157974,0.042562,-0.991547,-0.122569,-0.007498,-0.036651,0.069301,-7.346724,-29.222851,-8.291046,,,,,,,
1504199506.765444,0.330347,1.442300,-2.206098,0.129208,0.092838,0.098184,0.041566,-0.991756,-0.121215,0.005446,-0.100346,0.037703,-7.346724,-29.222851,-8.291046,,,,,,,
1504199506.775454,0.329168,1.440360,-2.203976,0.071582,0.077375,0.073549,0.042045,-0.991505,-0.123083,0.017205,-0.040981,-0.035715,-7.421843,-28.998775,-7.992920,,,,,,,
1504199506.785463,0.327437,1.440857,-2.201467,0.026994,0.082043,0.036105,0.041673,-0.991570,-0.122690,0.018828,-0.057731,-0.044394,-7.421843,-28.998775,-7.992920,,,,,,,
1504199506.795473,0.327581,1.440829,-2.200588,-0.019561,0.110167,0.002885,0.041700,-0.991566,-0.122710,0.011355,-0.036678,-0.025193,-7.571272,-29.224453,-7.991608,,,,,,,
1504199506.805483,0.330449,1.440272,-2.201984,-0.054073,0.168042,-0.044243,0.042231,-0.991494,-0.123112,-0.012598,-0.028160,0.008061,-7.571272,-29.224453,-7.991608,,,,,,,
1504199506.815493,0.316499,1.441299,-2.186326,-0.115903,0.183444,-0.030480,0.040192,-0.991627,-0.122722,-0.031968,-0.011089,0.014888,-7.571959,-28.999310,-8.068298,,,,,,,
1504199506.825502,0.316860,1.439916,-2.184622,-0.145592,0.214577,-0.017778,0.040664,-0.991447,-0.124010,-0.023955,-0.017281,0.007952,-7.571959,-28.999310,-8.068298,,,,,,,
1504199506.835512,0.315622,1.438437,-2.180910,-0.159287,0.253024,0.008816,0.040965,-0.991253,-0.125454,-0.006267,-0.000324,0.010235,-7.196394,-29.222622,-8.065704,,,,,,,
1504199506.845522,0.312304,1.436900,-2.174846,-0.170977,0.275470,0.035441,0.041017,-0.991049,-0.127040,-0.007601,0.004568,0.025416,-7.196394,-29.222622,-8.065704,,,,,,,
1504199506.855532,0.307527,1.437807,-2.167078,-0.195554,0.292666,0.072735,0.040138,-0.991170,-0.126377,-0.009651,0.017598,0.032474,-7.721571,-29.149975,-8.067566,,,,,,,
1504199506.865511,0.298057,1.436108,-2.154578,-0.220352,0.289625,0.119663,0.039434,-0.990943,-0.128361,-0.004979,0.040397,0.051197,-7.721571,-29.149975,-8.067566,,,,,,,
1504199506.875521,0.285166,1.434111,-2.138639,-0.265343,0.291021,0.158009,0.038332,-0.990673,-0.130757,0.002531,0.053692,0.068471,-7.572142,-29.148556,-8.442169,,,,,,,
1504199506.885530,0.269598,1.431672,-2.120016,-0.314571,0.290331,0.186745,0.036935,-0.990338,-0.133666,0.006064,0.069760,0.078674,-7.572142,-29.148556,-8.442169,,,,,,,
1504199506.895540,0.262828,1.432690,-2.110277,-0.322402,0.259438,0.214538,0.035768,-0.990479,-0.132940,0.007140,0.072632,0.084997,-7.572187,-29.223263,-8.591614,,,,,,,
1504199506.905550,0.245407,1.430376,-2.090237,-0.280928,0.237792,0.207177,0.034003,-0.990157,-0.135766,0.004693,0.055160,0.098077,-7.572187,-29.223263,-8.591614,,,,,,,
1504199506.915560,0.229702,1.428176,-2.072839,-0.297069,0.070654,0.180758,0.032363,-0.989847,-0.138404,0.001786,0.042200,0.106697,-7.722059,-29.224087,-8.516968,,,,,,,
1504199506.925570,0.211615,1.424303,-2.054670,-0.421156,0.026926,0.175283,0.030659,-0.989289,-0.142714,-0.005086,0.043687,0.094999,-7.722059,-29.224087,-8.516968,,,,,,,
1504199506.935579,0.206226,1.431339,-2.048671,-0.137369,0.018137,0.174737,0.028464,-0.990292,-0.136060,-0.012274,0.041927,0.133619,-7.573317,-28.997509,-8.968292,,,,,,,
1504199506.945589,0.195171,1.431688,-2.038299,0.034540,-0.118578,0.143254,0.026891,-0.990340,-0.136027,0.007029,0.037810,0.180247,-7.573317,-28.997509,-8.968292,,,,,,,
1504199506.955599,0.184960,1.432394,-2.030088,0.054100,-0.224205,0.116789,0.025372,-0.990438,-0.135608,0.073154,0.093068,0.099383,-7.873503,-28.923855,-8.969604,,,,,,,
1504199506.965609,0.178075,1.433853,-2.025855,0.169063,-0.284781,0.073331,0.024182,-0.990638,-0.134357,0.065753,0.059730,0.029560,-7.873503,-28.923855,-8.969604,,,,,,,
1504199506.975618,0.175844,1.436905,-2.026764,0.342873,-0.324528,0.029939,0.023353,-0.991050,-0.131433,0.027718,0.067100,0.048196,-8.249434,-28.550549,-8.973358,,,,,,,
1504199506.985628,0.189333,1.443941,-2.043620,0.445497,-0.341313,-0.032832,0.023811,-0.991965,-0.124255,0.010003,0.027304,0.055819,-8.249434,-28.550549,-8.973358,,,,,,,
1504199506.995593,0.199896,1.448903,-2.057573,0.551560,-0.321881,-0.089255,0.024144,-0.992580,-0.119170,0.011012,0.003857,0.044249,-8.622587,-28.928432,-8.371460,,,,,,,
1504199507.005603,0.218791,1.455181,-2.079609,0.708795,-0.299688,-0.132785,0.025038,-0.993324,-0.112608,0.010133,-0.033135,0.043684,-8.622587,-28.928432,-8.371460,,,,,,,
1504199507.015612,0.245911,1.462885,-2.109900,0.859384,-0.296639,-0.158147,0.026219,-0.994183,-0.104462,0.012569,-0.017001,0.038162,-8.996458,-29.155865,-7.995697,,,,,,,
1504199507.025622,0.285990,1.471295,-2.153091,0.944084,-0.282356,-0.217800,0.028024,-0.995054,-0.095302,0.023307,-0.020754,-0.000614,-8.996458,-29.155865,-7.995697,,,,,,,
1504199507.035632,0.338001,1.479593,-2.208435,0.949290,-0.321788,-0.255081,0.030201,-0.995844,-0.085924,0.034786,-0.027517,-0.048323,-8.920027,-29.232174,-7.169891,,,,,,,
1504199507.045642,0.402009,1.487285,-2.275982,0.919451,-0.330045,-0.275399,0.032637,-0.996515,-0.076764,0.034440,-0.082846,-0.075076,-8.920027,-29.232174,-7.169891,,,,,,,
1504199507.055651,0.475332,1.493792,-2.352849,0.822475,-0.319650,-0.281989,0.035205,-0.997037,-0.068400,0.033932,-0.103610,-0.066838,-9.143141,-29.534679,-6.418213,,,,,,,
1504199507.065661,0.550376,1.498387,-2.430888,0.638346,-0.260594,-0.278143,0.037837,-0.997380,-0.061662,0.021535,-0.084591,-0.066008,-9.143141,-29.534679,-6.418213,,,,,,,
1504199507.075671,0.616676,1.500920,-2.499423,0.425408,-0.193856,-0.261552,0.040378,-0.997560,-0.056959,-0.010196,-0.080520,-0.080813,-9.141829,-29.611172,-5.667603,,,,,,,
1504199507.085681,0.668145,1.501719,-2.552591,0.240045,-0.146528,-0.242743,0.042762,-0.997615,-0.054181,-0.031760,-0.091908,-0.098651,-9.141829,-29.611172,-5.667603,,,,,,,
1504199507.095691,0.704401,1.501332,-2.590429,0.118140,-0.166859,-0.220503,0.044947,-0.997588,-0.052889,-0.036525,-0.093003,-0.103407,-9.440580,-29.838421,-5.216675,,,,,,,
1504199507.105700,0.663858,1.497838,-2.551283,-0.005519,-0.133870,-0.195149,0.044914,-0.997340,-0.057413,-0.025246,-0.086004,-0.075766,-9.140425,-29.986767,-5.364807,,,,,,,
1504199507.115710,0.679230,1.496540,-2.567761,-0.034265,-0.110217,-0.169623,0.046605,-0.997244,-0.057723,-0.010914,-0.079767,-0.041429,-9.140425,-29.986767,-5.364807,,,,,,,
1504199507.125690,0.690073,1.495145,-2.579435,-0.056490,-0.077018,-0.152642,0.048113,-0.997140,-0.058287,0.000837,-0.070808,-0.001421,-9.364943,-30.137936,-5.289215,,,,,,,
1504199507.135700,0.698824,1.493860,-2.588846,-0.051124,-0.061098,-0.133447,0.049445,-0.997042,-0.058844,0.006707,-0.054716,0.011450,-9.364943,-30.137936,-5.289215,,,,,,,
1504199507.145710,0.720990,1.493129,-2.611467,-0.040416,-0.045228,-0.114247,0.051219,-0.996985,-0.058281,0.009923,-0.032815,0.012734,-9.290312,-29.987591,-5.290161,,,,,,,
1504199507.155720,0.724660,1.492108,-2.615724,-0.060963,-0.061074,-0.084367,0.052107,-0.996906,-0.058855,0.017427,-0.016034,-0.005461,-9.290312,-29.987591,-5.290161,,,,,,,
1504199507.165728,0.725518,1.491183,-2.617097,-0.058795,-0.044063,-0.064113,0.052770,-0.996833,-0.059500,0.032024,0.012625,-0.031244,-9.214827,-30.137402,-5.213867,,,,,,,
1504199507.175738,0.726701,1.490433,-2.618518,-0.045808,-0.016472,-0.056667,0.053337,-0.996773,-0.059997,0.033821,0.049660,-0.032059,-9.214827,-30.137402,-5.213867,,,,,,,
1504199507.185748,0.721618,1.486926,-2.613587,-0.043791,-0.019688,-0.040663,0.055340,-0.996485,-0.062891,0.023685,0.027704,-0.035299,-8.915174,-30.135616,-5.438141,,,,,,,
1504199507.195758,0.719265,1.486266,-2.611696,-0.067635,-0.058931,-0.028894,0.055625,-0.996429,-0.063516,0.034722,-0.005142,-0.061912,-8.915174,-30.135616,-5.438141,,,,,,,
1504199507.205767,0.711842,1.485279,-2.605439,-0.123778,-0.138394,-0.023514,0.055794,-0.996346,-0.064671,0.039192,-0.018669,-0.068828,-8.165586,-30.056942,-5.586853,,,,,,,
1504199507.215777,0.702236,1.483880,-2.597511,-0.155991,-0.178597,-0.046982,0.056071,-0.996225,-0.066268,0.056188,-0.031454,-0.032731,-8.165586,-30.056942,-5.586853,,,,,,,
1504199507.225787,0.744474,1.481361,-2.641464,-0.152619,-0.191372,-0.097148,0.060519,-0.996003,-0.065687,0.063443,-0.024154,0.034056,-7.866194,-30.129543,-6.110565,,,,,,,
1504199507.235797,0.743370,1.479321,-2.642139,-0.146785,-0.166848,-0.158023,0.061822,-0.995819,-0.067250,0.049949,-0.027863,0.086521,-7.866194,-30.129543,-6.110565,,,,,,,
1504199507.245806,0.746803,1.476786,-2.647113,-0.158098,-0.151773,-0.218911,0.063767,-0.995584,-0.068889,0.029129,-0.040838,0.086879,-7.792555,-29.678905,-6.263763,,,,,,,
1504199507.255816,0.755475,1.474057,-2.657127,-0.125645,-0.125352,-0.265867,0.066224,-0.995324,-0.070311,0.031661,-0.045584,0.049727,-7.792555,-29.678905,-6.263763,,,,,,,
1504199507.265826,0.772360,1.471418,-2.674978,-0.063223,-0.093838,-0.323454,0.069235,-0.995066,-0.071064,0.053858,-0.046041,0.020192,-7.117704,-29.750423,-6.486542,,,,,,,
1504199507.275836,0.791228,1.468442,-2.695341,-0.077381,-0.154419,-0.362866,0.072669,-0.994766,-0.071827,0.053094,-0.047897,0.009281,-7.117704,-29.750423,-6.486542,,,,,,,
1504199507.285846,0.804889,1.464676,-2.711161,-0.160993,-0.221898,-0.392779,0.076343,-0.994375,-0.073424,0.045025,-0.054209,-0.022875,-6.967665,-29.675045,-6.336731,,,,,,,
1504199507.295856,0.817262,1.460396,-2.725603,-0.171156,-0.179156,-0.425961,0.080348,-0.993912,-0.075385,0.047200,-0.050735,-0.016061,-6.967665,-29.675045,-6.336731,,,,,,,
1504199507.305866,0.840697,1.456298,-2.749878,-0.027375,-0.000160,-0.515690,0.085127,-0.993452,-0.076197,0.036439,-0.046572,0.036814,-6.592787,-29.673214,-6.410797,,,,,,,
1504199507.315875,0.893495,1.455781,-2.802454,-0.036770,0.029719,-0.504003,0.089430,-0.993393,-0.071921,-0.021636,0.010986,0.088171,-6.592787,-29.673214,-6.410797,,,,,,,
1504199507.325885,0.912345,1.451293,-2.820817,-0.130422,0.074156,-0.480761,0.094295,-0.992868,-0.072949,-0.069698,-0.024634,0.046521,-6.142942,-29.745739,-6.634125,,,,,,,
1504199507.335894,0.931328,1.446807,-2.838347,-0.078234,0.192014,-0.487283,0.099236,-0.992323,-0.073803,-0.102700,-0.080980,0.000607,-6.142942,-29.745739,-6.634125,,,,,,,
1504199507.345904,0.958060,1.443060,-2.862634,0.065412,0.281399,-0.479720,0.104215,-0.991853,-0.073263,-0.127164,-0.065124,0.006078,-5.692671,-29.893566,-6.706879,,,,,,,
1504199507.355914,0.992118,1.440172,-2.893615,0.199167,0.345274,-0.455050,0.109046,-0.991481,-0.071238,-0.140373,-0.073186,0.002421,-5.692671,-29.893566,-6.706879,,,,,,,
1504199507.365924,1.029984,1.437967,-2.927912,0.278310,0.393598,-0.415505,0.113539,-0.991191,-0.068184,-0.141676,-0.073079,-0.025337,-5.242414,-30.041393,-6.779633,,,,,,,
1504199507.375933,1.070964,1.436490,-2.964206,0.375114,0.532326,-0.349402,0.117522,-0.990994,-0.064177,-0.152983,-0.062900,-0.039827,-5.242414,-30.041393,-6.779633,,,,,,,
1504199507.385913,1.117258,1.436174,-3.005022,0.490346,0.585565,-0.255373,0.120647,-0.990952,-0.058807,-0.145809,-0.062133,-0.026429,-5.091887,-30.116177,-6.553741,,,,,,,
1504199507.395922,1.164815,1.436563,-3.046612,0.548291,0.673455,-0.180709,0.122952,-0.991004,-0.052852,-0.153943,-0.069848,-0.032887,-5.091887,-30.116177,-6.553741,,,,,,,
1504199507.405932,1.225610,1.437883,-3.100113,0.743156,0.795398,-0.121879,0.124705,-0.991180,-0.044842,-0.134394,-0.033814,-0.033405,-5.016478,-30.191143,-6.402954,,,,,,,
1504199507.415942,1.298391,1.439924,3.119277,0.918574,1.037886,-0.035543,0.125687,-0.991448,-0.035111,-0.122940,0.009622,0.005509,-5.016478,-30.191143,-6.402954,,,,,,,
1504199507.425952,1.379691,1.442589,3.048362,0.917397,1.098511,0.083897,0.125528,-0.991793,-0.024285,-0.142237,0.018328,0.000589,-4.641249,-29.965496,-5.878693,,,,,,,
1504199507.435962,1.440062,1.445768,2.997605,0.600698,0.961347,0.255442,0.123639,-0.992194,-0.016257,-0.148327,-0.009820,-0.054972,-4.641249,-29.965496,-5.878693,,,,,,,
1504199507.445971,1.470352,1.449897,2.975930,0.210743,0.862096,0.415051,0.119997,-0.992701,-0.012094,-0.134142,-0.051123,-0.132880,-4.715544,-30.116283,-5.652740,,,,,,,
1504199507.455981,1.475696,1.454815,2.979096,-0.038424,0.854451,0.517104,0.115198,-0.993282,-0.010989,-0.121363,-0.023396,-0.107725,-4.715544,-30.116283,-5.652740,,,,,,,
1504199507.465991,1.469358,1.460591,2.994328,-0.132557,0.883898,0.612955,0.109417,-0.993933,-0.011137,-0.072445,0.045005,-0.018556,-4.714857,-30.341427,-5.576080,,,,,,,
1504199507.476002,1.457351,1.467083,3.015742,-0.165517,0.944831,0.687508,0.102862,-0.994627,-0.011720,-0.061068,0.109800,0.049302,-4.714857,-30.341427,-5.576080,,,,,,,
1504199507.486010,1.437277,1.474143,3.045810,-0.231655,0.986867,0.752431,0.095644,-0.995333,-0.012847,-0.065477,0.147402,0.036956,-5.165205,-30.343014,-5.802185,,,,,,,
1504199507.496020,1.400174,1.481618,3.092897,-0.350564,0.970724,0.822702,0.087767,-0.996026,-0.015122,-0.046568,0.162683,-0.029449,-5.165205,-30.343014,-5.802185,,,,,,,
