timestamp(unix),attitude_roll(radians),attitude_pitch(radians),attitude_yaw(radians),rotation_rate_x(radians/s),rotation_rate_y(radians/s),rotation_rate_z(radians/s),gravity_x(G),gravity_y(G),gravity_z(G),user_acc_x(G),user_acc_y(G),user_acc_z(G),magnetic_field_x(microteslas),magnetic_field_y(microteslas),magnetic_field_z(microteslas),latitude(degree),longitude(degree),altitude(meter),speed(m/s),course(degree),timestamp(unix),User Mark
1504195894.373005,0.009751,0.318684,-0.169339,0.100239,-0.088315,-0.009618,0.009260,-0.313317,-0.949603,-0.005155,-0.004524,-0.020321,12.725252,-1.113843,-30.126678,,,,,,,
1504195894.383014,0.009576,0.319388,-0.169332,0.060388,0.006838,0.004022,0.009092,-0.313986,-0.949384,-0.012098,-0.004862,-0.019793,12.649492,-1.038434,-30.502441,,,,,,,
1504195894.393024,0.010222,0.319774,-0.169227,0.033251,0.086974,0.011305,0.009703,-0.314352,-0.949257,-0.015380,-0.005488,-0.011543,12.649492,-1.038434,-30.502441,,,,,,,
1504195894.403034,0.011487,0.319972,-0.169106,0.015590,0.142569,0.012229,0.010904,-0.314540,-0.949181,-0.014917,-0.003544,-0.008445,12.724001,-0.887952,-30.578400,,,,,,,
1504195894.413044,0.012711,0.320002,-0.168888,0.005020,0.155418,0.012197,0.012065,-0.314568,-0.949158,-0.010341,-0.001777,-0.009155,12.724001,-0.887952,-30.578400,,,,,,,
1504195894.423053,0.014110,0.320037,-0.168748,0.003803,0.137312,0.013294,0.013393,-0.314602,-0.949129,-0.004024,-0.003636,-0.008222,12.800432,-1.412763,-30.499237,,,,,,,
1504195894.433063,0.015122,0.320080,-0.168597,0.005585,0.094671,0.015508,0.014354,-0.314642,-0.949102,0.005361,-0.004632,-0.004557,12.800432,-1.412763,-30.499237,,,,,,,
1504195894.443073,0.015627,0.320210,-0.168446,0.015850,0.043439,0.014548,0.014832,-0.314766,-0.949054,0.012252,-0.006600,-0.000058,12.649981,-1.188581,-30.426300,,,,,,,
1504195894.453083,0.016269,0.320727,-0.168509,0.038979,-0.003582,0.011450,0.015439,-0.315257,-0.948881,0.018222,-0.004049,0.005262,12.649981,-1.188581,-30.426300,,,,,,,
1504195894.463062,0.015889,0.321196,-0.168435,0.049359,-0.043090,0.006201,0.015076,-0.315702,-0.948739,0.021637,-0.002124,0.014504,13.024904,-1.112058,-30.350952,,,,,,,
1504195894.473072,0.016055,0.321953,-0.168637,0.063172,-0.054858,0.001953,0.015229,-0.316420,-0.948497,0.021987,-0.000337,0.014018,13.024904,-1.112058,-30.350952,,,,,,,
1504195894.483082,0.016197,0.322735,-0.168880,0.083597,-0.041115,-0.006593,0.015360,-0.317162,-0.948247,0.018225,0.003884,0.010076,12.575396,-1.264218,-30.275940,,,,,,,
1504195894.493091,0.016316,0.323620,-0.169143,0.099804,-0.020963,-0.016219,0.015469,-0.318000,-0.947964,0.010349,0.007362,0.011914,12.575396,-1.264218,-30.275940,,,,,,,
1504195894.503101,0.016505,0.324662,-0.169462,0.103176,-0.004983,-0.024786,0.015642,-0.318989,-0.947629,0.005476,0.004642,0.011625,12.650286,-1.263730,-30.350739,,,,,,,
1504195894.513111,0.016782,0.325648,-0.169848,0.087339,0.009020,-0.034448,0.015899,-0.319923,-0.947310,0.003098,0.003211,0.014235,12.650286,-1.263730,-30.350739,,,,,,,
1504195894.523121,0.017156,0.326486,-0.170252,0.072503,0.020871,-0.034496,0.016249,-0.320716,-0.947036,0.002321,0.000907,0.008758,12.799761,-0.963361,-30.202637,,,,,,,
1504195894.533130,0.017574,0.327258,-0.170634,0.071506,0.029406,-0.033446,0.016640,-0.321448,-0.946781,0.000541,0.000632,0.007313,12.799761,-0.963361,-30.202637,,,,,,,
1504195894.543140,0.017923,0.327992,-0.171014,0.084308,0.028232,-0.036622,0.016967,-0.322143,-0.946539,-0.002883,0.006362,0.007559,12.950502,-1.262692,-30.200012,,,,,,,
1504195894.553150,0.018177,0.328904,-0.171339,0.118251,0.011955,-0.025861,0.017201,-0.323006,-0.946241,-0.001393,0.010979,0.008680,12.950502,-1.262692,-30.200012,,,,,,,
1504195894.563160,0.017976,0.330037,-0.171384,0.149727,-0.029902,0.008424,0.017005,-0.324078,-0.945877,-0.001365,0.016476,0.010224,12.800508,-1.263364,-30.200378,,,,,,,
1504195894.573169,0.017351,0.331496,-0.171146,0.168609,-0.056718,0.026649,0.016406,-0.325458,-0.945414,-0.000002,0.011172,0.005107,12.800508,-1.263364,-30.200378,,,,,,,
1504195894.583179,0.016645,0.332901,-0.170885,0.159980,-0.065173,0.027715,0.015730,-0.326786,-0.944967,0.000337,0.012821,0.004690,13.025393,-1.262204,-30.274811,,,,,,,
1504195894.593189,0.015866,0.333623,-0.170685,0.122378,-0.092551,0.024487,0.014991,-0.327468,-0.944743,0.007226,0.030975,0.012996,13.025393,-1.262204,-30.274811,,,,,,,
1504195894.603199,0.014909,0.334429,-0.170556,0.077511,-0.103883,0.015886,0.014082,-0.328230,-0.944493,0.005876,0.003950,-0.001491,13.100542,-1.411572,-30.423492,,,,,,,
1504195894.613208,0.014137,0.334826,-0.170477,0.039230,-0.087564,0.014716,0.013352,-0.328605,-0.944373,0.009048,0.003501,-0.001382,13.100542,-1.411572,-30.423492,,,,,,,
1504195894.623218,0.013556,0.335035,-0.170321,0.009636,-0.051085,0.017800,0.012801,-0.328802,-0.944312,0.004059,0.000738,0.007423,12.726458,-1.638700,-30.197754,,,,,,,
1504195894.633228,0.013178,0.335243,-0.170097,-0.002767,-0.004107,0.016634,0.012444,-0.328999,-0.944248,-0.005486,-0.005047,0.011250,12.726458,-1.638700,-30.197754,,,,,,,
1504195894.643238,0.013184,0.335407,-0.169778,-0.002432,0.041683,0.026168,0.012449,-0.329154,-0.944194,-0.008589,-0.003579,0.013652,12.576113,-1.414670,-30.049805,,,,,,,
1504195894.653248,0.013435,0.335622,-0.169308,-0.000052,0.076790,0.036795,0.012685,-0.329357,-0.944120,-0.012914,-0.002598,0.018232,12.576113,-1.414670,-30.049805,,,,,,,
1504195894.663257,0.013848,0.335800,-0.168742,-0.008468,0.093874,0.044233,0.013074,-0.329525,-0.944056,-0.013792,-0.002491,0.020655,12.950274,-1.262387,-30.350006,,,,,,,
1504195894.673237,0.014494,0.335875,-0.168211,-0.021141,0.104618,0.039932,0.013684,-0.329595,-0.944023,-0.010907,-0.006877,0.013283,12.950274,-1.262387,-30.350006,,,,,,,
1504195894.683246,0.015201,0.335749,-0.167812,-0.027483,0.102532,0.027124,0.014352,-0.329476,-0.944055,-0.010736,-0.004264,0.006631,12.576754,-1.714520,-30.122559,,,,,,,
1504195894.693256,0.015737,0.335609,-0.167525,-0.027773,0.062034,0.022930,0.014858,-0.329345,-0.944093,-0.006420,-0.004762,0.005494,12.576754,-1.714520,-30.122559,,,,,,,
1504195894.703266,0.015667,0.335589,-0.167226,-0.015559,-0.011602,0.026286,0.014793,-0.329326,-0.944100,-0.002998,-0.006322,0.005395,13.025927,-1.561902,-30.422546,,,,,,,
1504195894.713276,0.014850,0.335782,-0.167013,0.005166,-0.095947,0.017932,0.014021,-0.329508,-0.944049,0.000658,-0.007727,0.005526,13.025927,-1.561902,-30.422546,,,,,,,
1504195894.723285,0.013423,0.336196,-0.166917,0.022876,-0.157882,0.008464,0.012671,-0.329898,-0.943932,0.003686,-0.007703,0.007729,12.876451,-1.638028,-30.197388,,,,,,,
1504195894.733295,0.011799,0.336651,-0.166978,0.021827,-0.169572,-0.009664,0.011136,-0.330328,-0.943801,0.003650,-0.005961,0.012282,12.876451,-1.638028,-30.197388,,,,,,,
1504195894.743305,0.010474,0.336921,-0.167180,0.009568,-0.112986,-0.025792,0.009885,-0.330582,-0.943725,-0.003232,-0.003600,0.008453,13.100954,-1.486859,-30.272949,,,,,,,
1504195894.753315,0.009868,0.336927,-0.167457,0.000747,-0.022347,-0.037700,0.009313,-0.330589,-0.943729,-0.011220,0.001075,-0.000912,13.100954,-1.486859,-30.272949,,,,,,,
1504195894.763324,0.009888,0.336786,-0.167674,-0.008246,0.057600,-0.033570,0.009333,-0.330455,-0.943775,-0.022150,0.004512,0.000874,12.726076,-1.488706,-30.198883,,,,,,,
1504195894.773334,0.010314,0.336532,-0.167702,-0.022999,0.093888,-0.013363,0.009735,-0.330216,-0.943855,-0.023117,0.001755,-0.002861,12.726076,-1.488706,-30.198883,,,,,,,
1504195894.783344,0.010809,0.336229,-0.167514,-0.030566,0.094957,0.007985,0.010204,-0.329930,-0.943950,-0.020351,-0.003017,-0.009175,12.951189,-1.712094,-30.496643,,,,,,,
1504195894.793354,0.011300,0.335946,-0.167264,-0.021080,0.084191,0.013368,0.010668,-0.329662,-0.944039,-0.014956,-0.002980,-0.013252,12.951189,-1.712094,-30.496643,,,,,,,
1504195894.803364,0.011797,0.335769,-0.167097,-0.002010,0.065908,0.009169,0.011138,-0.329495,-0.944092,-0.008406,0.001111,-0.011872,12.951525,-1.712537,-30.271637,,,,,,,
1504195894.813373,0.012197,0.335739,-0.167093,0.014939,0.042334,-0.006767,0.011516,-0.329467,-0.944097,-0.004741,0.005462,-0.005992,12.951525,-1.712537,-30.271637,,,,,,,
1504195894.823383,0.012429,0.335882,-0.167311,0.029736,0.013457,-0.026969,0.011734,-0.329602,-0.944047,-0.002991,0.004483,-0.004729,12.801714,-1.788220,-30.271423,,,,,,,
1504195894.833393,0.012492,0.336161,-0.167658,0.030635,-0.011053,-0.033329,0.011793,-0.329865,-0.943954,0.000003,0.001771,-0.001755,12.801714,-1.788220,-30.271423,,,,,,,
1504195894.843403,0.012300,0.336456,-0.168008,0.020819,-0.036549,-0.030099,0.011610,-0.330143,-0.943859,0.000124,-0.002162,0.003140,13.025286,-1.262052,-30.349823,,,,,,,
1504195894.853412,0.012060,0.336622,-0.168287,0.004854,-0.030029,-0.025868,0.011382,-0.330301,-0.943807,-0.000030,-0.004965,-0.001246,13.025286,-1.262052,-30.349823,,,,,,,
1504195894.863422,0.012020,0.336677,-0.168505,-0.000199,0.007297,-0.021671,0.011344,-0.330352,-0.943789,-0.004051,-0.003586,-0.002988,12.501192,-1.714108,-30.497742,,,,,,,
1504195894.873432,0.012399,0.336649,-0.168614,0.004380,0.054126,-0.010001,0.011702,-0.330326,-0.943794,-0.004653,0.001347,-0.003365,12.501192,-1.714108,-30.497742,,,,,,,
1504195894.883411,0.012996,0.336606,-0.168527,0.010940,0.086007,0.007039,0.012267,-0.330285,-0.943801,-0.009016,0.007302,0.000961,12.875628,-1.487424,-30.498505,,,,,,,
1504195894.893421,0.013712,0.336634,-0.168350,0.019481,0.092310,0.013452,0.012942,-0.330312,-0.943783,-0.008365,0.008550,0.002743,12.875628,-1.487424,-30.498505,,,,,,,
1504195894.903431,0.014245,0.336794,-0.168290,0.037211,0.035700,0.001842,0.013444,-0.330463,-0.943723,-0.000657,0.009051,0.001585,13.026644,-1.712354,-30.196442,,,,,,,
1504195894.913440,0.014051,0.337303,-0.168630,0.059917,-0.081648,-0.033143,0.013258,-0.330943,-0.943558,0.011034,0.005549,0.008209,13.026644,-1.712354,-30.196442,,,,,,,
1504195894.923450,0.013048,0.338325,-0.169421,0.093303,-0.199065,-0.065983,0.012308,-0.331908,-0.943232,0.022863,-0.000795,0.026941,12.951555,-1.637845,-30.122192,,,,,,,
1504195894.933460,0.011362,0.339572,-0.170379,0.094146,-0.237388,-0.077668,0.010713,-0.333083,-0.942837,0.019926,-0.000810,0.034206,12.951555,-1.637845,-30.122192,,,,,,,
1504195894.943470,0.009985,0.340607,-0.171043,0.045660,-0.148560,-0.045893,0.009411,-0.334060,-0.942505,0.010394,-0.004518,0.055115,13.025805,-1.561749,-30.497559,,,,,,,
1504195894.953479,0.009359,0.340644,-0.171063,-0.016253,0.007454,-0.003567,0.008821,-0.334094,-0.942498,-0.016649,0.004138,0.013925,13.025805,-1.561749,-30.497559,,,,,,,
1504195894.963489,0.009828,0.340021,-0.170759,-0.094267,0.134839,0.014237,0.009265,-0.333507,-0.942702,-0.027179,-0.005360,0.005553,12.802309,-1.938519,-30.120300,,,,,,,
1504195894.973499,0.011124,0.338771,-0.170436,-0.134300,0.196933,0.011940,0.010492,-0.332328,-0.943106,-0.026407,-0.006615,-0.009745,12.802309,-1.938519,-30.120300,,,,,,,
1504195894.983509,0.012785,0.337421,-0.170297,-0.127790,0.200065,-0.005121,0.012064,-0.331055,-0.943534,-0.019525,-0.005600,-0.014824,12.876970,-1.713468,-29.971832,,,,,,,
1504195894.993519,0.014258,0.336547,-0.170408,-0.084396,0.145363,-0.020955,0.013458,-0.330230,-0.943805,-0.010146,-0.007279,-0.004880,12.876970,-1.713468,-29.971832,,,,,,,
1504195895.003528,0.015045,0.336175,-0.170620,-0.027503,0.054315,-0.021761,0.014203,-0.329879,-0.943916,-0.003552,-0.002473,-0.001564,13.025957,-1.487195,-30.273132,,,,,,,
1504195895.013538,0.014873,0.336397,-0.170782,0.027036,-0.056963,-0.009731,0.014038,-0.330088,-0.943846,0.003479,-0.003698,0.001265,13.025957,-1.487195,-30.273132,,,,,,,
1504195895.023548,0.013741,0.337126,-0.170911,0.061496,-0.152075,-0.008442,0.012967,-0.330777,-0.943620,0.008135,-0.007679,0.005906,12.951189,-1.487836,-30.123322,,,,,,,
1504195895.033558,0.012088,0.338060,-0.171190,0.074036,-0.197967,-0.025424,0.011404,-0.331657,-0.943331,0.010722,-0.008950,0.006152,12.951189,-1.487836,-30.123322,,,,,,,
1504195895.043567,0.010472,0.339009,-0.171711,0.072125,-0.187257,-0.048935,0.009876,-0.332553,-0.943033,0.009762,-0.008954,0.007227,12.951342,-1.637540,-30.272186,,,,,,,
1504195895.053577,0.009327,0.339792,-0.172405,0.055670,-0.124228,-0.068290,0.008794,-0.333291,-0.942783,0.003124,-0.006644,0.008350,12.951342,-1.637540,-30.272186,,,,,,,
1504195895.063587,0.008835,0.340252,-0.173125,0.023308,-0.038722,-0.071694,0.008328,-0.333725,-0.942634,-0.006955,-0.005646,0.007209,12.726076,-1.488706,-30.198883,,,,,,,
1504195895.073597,0.008962,0.340368,-0.173687,-0.010355,0.030782,-0.053722,0.008447,-0.333834,-0.942594,-0.011591,-0.008436,-0.000094,12.726076,-1.488706,-30.198883,,,,,,,
1504195895.083606,0.009310,0.340184,-0.173931,-0.038030,0.055467,-0.024984,0.008777,-0.333661,-0.942652,-0.014239,-0.008747,-0.002477,12.800814,-1.562772,-30.498138,,,,,,,
1504195895.093586,0.009696,0.339855,-0.174025,-0.049840,0.051273,-0.014316,0.009141,-0.333351,-0.942759,-0.010911,-0.010674,-0.005880,12.800814,-1.562772,-30.498138,,,,,,,
1504195895.103595,0.009947,0.339487,-0.174174,-0.042633,0.014981,-0.018506,0.009379,-0.333004,-0.942879,-0.004252,-0.007771,-0.006874,12.801104,-1.637921,-30.422546,,,,,,,
1504195895.113605,0.009839,0.339171,-0.174406,-0.030222,-0.036263,-0.021598,0.009278,-0.332706,-0.942985,0.001998,-0.002454,-0.002846,12.801104,-1.637921,-30.422546,,,,,,,
1504195895.123600,0.009254,0.338944,-0.174720,-0.012518,-0.093935,-0.027874,0.008727,-0.332491,-0.943066,0.006990,0.001086,-0.003818,12.800463,-1.338056,-30.349823,,,,,,,
1504195895.133610,0.008251,0.338924,-0.175151,0.020300,-0.132544,-0.040562,0.007782,-0.332472,-0.943081,0.007080,0.005781,-0.007328,12.800463,-1.338056,-30.349823,,,,,,,
1504195895.143620,0.007071,0.339159,-0.175678,0.057509,-0.149884,-0.045808,0.006669,-0.332694,-0.943011,0.007583,0.012473,-0.004468,12.650927,-1.339337,-30.050171,,,,,,,
1504195895.153630,0.005756,0.339637,-0.176150,0.089464,-0.150147,-0.041483,0.005428,-0.333145,-0.942860,0.003590,0.018524,-0.004085,12.650927,-1.339337,-30.050171,,,,,,,
1504195895.163640,0.004479,0.340243,-0.176545,0.098130,-0.127849,-0.038303,0.004223,-0.333716,-0.942664,-0.002208,0.019751,-0.005090,12.651033,-1.563733,-30.348511,,,,,,,
1504195895.173650,0.003480,0.340830,-0.176879,0.093075,-0.086265,-0.034110,0.003279,-0.334269,-0.942472,-0.006545,0.019557,-0.006655,12.651033,-1.563733,-30.348511,,,,,,,
1504195895.183660,0.002923,0.341258,-0.177068,0.068930,-0.025357,-0.021442,0.002755,-0.334672,-0.942330,-0.011010,0.016099,-0.008979,12.501451,-1.639707,-30.198303,,,,,,,
1504195895.193669,0.002813,0.341413,-0.177080,0.028782,0.034605,-0.008797,0.002651,-0.334819,-0.942279,-0.018550,0.010829,-0.008206,12.501451,-1.639707,-30.198303,,,,,,,
1504195895.203679,0.003005,0.341234,-0.176934,-0.006245,0.066816,0.002840,0.002832,-0.334650,-0.942338,-0.021600,0.008265,-0.007537,12.426378,-1.789456,-30.497375,,,,,,,
1504195895.213689,0.003448,0.340926,-0.176733,-0.017876,0.084995,0.008135,0.003250,-0.334360,-0.942440,-0.017120,0.005701,-0.008641,12.426378,-1.789456,-30.497375,,,,,,,
1504195895.223699,0.003914,0.340698,-0.176577,-0.013714,0.070025,0.003908,0.003689,-0.334145,-0.942515,-0.014477,0.004311,0.000330,12.725969,-1.488553,-30.273865,,,,,,,
1504195895.233708,0.004273,0.340578,-0.176603,-0.007505,0.036945,-0.010963,0.004028,-0.334032,-0.942553,-0.007293,0.005388,0.010821,12.725969,-1.488553,-30.273865,,,,,,,
1504195895.243718,0.004450,0.340546,-0.176868,0.000843,0.001731,-0.030099,0.004195,-0.334001,-0.942563,-0.000731,0.003984,0.007444,12.576525,-1.714231,-30.272552,,,,,,,
1504195895.253728,0.004414,0.340598,-0.177314,0.003909,-0.023854,-0.043925,0.004161,-0.334051,-0.942546,0.000326,0.002706,0.009028,12.576525,-1.714231,-30.272552,,,,,,,
1504195895.263738,0.004315,0.340739,-0.177882,0.008204,-0.029204,-0.056717,0.004067,-0.334183,-0.942499,-0.000084,0.000031,0.011393,12.501040,-1.564420,-30.348877,,,,,,,
1504195895.273746,0.004253,0.340983,-0.178502,0.024309,-0.019746,-0.060974,0.004009,-0.334414,-0.942418,-0.002574,0.000811,0.009129,12.501040,-1.564420,-30.348877,,,,,,,
1504195895.283756,0.004321,0.341412,-0.179088,0.044687,-0.002877,-0.054563,0.004072,-0.334818,-0.942274,-0.003751,0.002039,0.011503,12.576189,-1.489530,-30.124237,,,,,,,
1504195895.293766,0.004502,0.341973,-0.179505,0.052228,0.016217,-0.037502,0.004242,-0.335347,-0.942085,-0.004745,0.003407,0.016182,12.576189,-1.489530,-30.124237,,,,,,,
1504195895.303777,0.004874,0.342460,-0.179738,0.038451,0.038685,-0.019419,0.004590,-0.335806,-0.941920,-0.002759,0.004125,0.018290,12.726748,-1.713849,-30.122192,,,,,,,
1504195895.313756,0.005468,0.342675,-0.179917,-0.000874,0.057123,-0.018453,0.005150,-0.336008,-0.941845,-0.000633,0.000437,0.018887,12.726748,-1.713849,-30.122192,,,,,,,
1504195895.323766,0.006300,0.342496,-0.180228,-0.045580,0.061774,-0.029217,0.005935,-0.335839,-0.941901,0.005601,-0.004722,0.015341,12.576754,-1.714520,-30.122559,,,,,,,
1504195895.333776,0.007244,0.342000,-0.180716,-0.079645,0.058890,-0.045289,0.006824,-0.335372,-0.942061,0.008892,-0.008668,0.014693,12.576754,-1.714520,-30.122559,,,,,,,
1504195895.343785,0.008274,0.341261,-0.181408,-0.109480,0.050649,-0.061347,0.007797,-0.334676,-0.942301,0.013337,-0.009929,0.021250,12.651079,-1.489041,-30.199066,,,,,,,
1504195895.353795,0.009283,0.340273,-0.182289,-0.130768,0.043406,-0.078460,0.008751,-0.333744,-0.942623,0.014229,-0.009594,0.021725,12.651079,-1.489041,-30.199066,,,,,,,
1504195895.363805,0.010298,0.339058,-0.183212,-0.143546,0.045665,-0.076362,0.009712,-0.332599,-0.943018,0.015160,-0.007840,0.014368,12.801027,-1.338803,-29.974823,,,,,,,
1504195895.373815,0.011323,0.337848,-0.184002,-0.140303,0.055237,-0.065709,0.010683,-0.331457,-0.943410,0.012480,-0.010324,0.010762,12.801027,-1.338803,-29.974823,,,,,,,
1504195895.383824,0.012226,0.336694,-0.184628,-0.131829,0.054100,-0.051821,0.011539,-0.330369,-0.943781,0.007336,-0.006393,0.016673,12.801302,-1.488660,-30.048676,,,,,,,
1504195895.393834,0.013024,0.335624,-0.185156,-0.121421,0.027384,-0.038957,0.012297,-0.329358,-0.944125,0.014436,-0.005710,0.018222,12.801302,-1.488660,-30.048676,,,,,,,
1504195895.403844,0.013388,0.334792,-0.185573,-0.101504,-0.015353,-0.028197,0.012644,-0.328573,-0.944394,0.015157,-0.010599,0.014676,12.800402,-1.263211,-30.275360,,,,,,,
1504195895.413854,0.013327,0.334219,-0.185893,-0.076238,-0.056037,-0.020621,0.012589,-0.328031,-0.944583,0.017104,-0.011721,0.013339,12.800402,-1.263211,-30.275360,,,,,,,
1504195895.423863,0.012885,0.333865,-0.186171,-0.044448,-0.083986,-0.018391,0.012173,-0.327697,-0.944705,0.014728,-0.006532,0.014437,13.025805,-1.337506,-30.124268,,,,,,,
1504195895.433872,0.012263,0.333775,-0.186400,-0.014607,-0.087417,-0.015138,0.011586,-0.327612,-0.944741,0.010844,-0.002726,0.014215,13.025805,-1.337506,-30.124268,,,,,,,
1504195895.443882,0.011679,0.333847,-0.186550,-0.000563,-0.064088,-0.010887,0.011034,-0.327680,-0.944724,0.004271,-0.001314,0.013221,12.575090,-1.189069,-30.351501,,,,,,,
1504195895.453892,0.011341,0.333813,-0.186666,-0.008703,-0.018201,-0.016316,0.010714,-0.327648,-0.944739,-0.004275,0.001873,0.009467,12.575090,-1.189069,-30.351501,,,,,,,
1504195895.463902,0.011454,0.333575,-0.186853,-0.035981,0.033169,-0.026055,0.010823,-0.327423,-0.944816,-0.009419,-0.000961,0.005683,12.650393,-1.263883,-30.275726,,,,,,,
1504195895.473912,0.012013,0.333077,-0.187100,-0.064497,0.067496,-0.028294,0.011352,-0.326952,-0.944973,-0.007843,-0.004118,0.003505,12.650393,-1.263883,-30.275726,,,,,,,
1504195895.483922,0.012679,0.332365,-0.187341,-0.083725,0.065511,-0.025118,0.011984,-0.326279,-0.945197,-0.006644,-0.005447,0.003913,12.800402,-1.263211,-30.275360,,,,,,,
1504195895.493932,0.013209,0.331691,-0.187531,-0.082886,0.039921,-0.017599,0.012489,-0.325642,-0.945411,-0.000877,-0.009761,0.003760,12.800402,-1.263211,-30.275360,,,,,,,
1504195895.503942,0.013509,0.331126,-0.187769,-0.069174,0.013180,-0.026068,0.012775,-0.325108,-0.945590,0.001568,-0.008937,0.003009,12.650591,-1.338880,-30.275177,,,,,,,
1504195895.513951,0.013752,0.330671,-0.188195,-0.048918,0.000248,-0.042024,0.013007,-0.324677,-0.945735,0.003549,-0.005599,0.003047,12.650591,-1.338880,-30.275177,,,,,,,
1504195895.523931,0.013958,0.330319,-0.188720,-0.035104,-0.010507,-0.047322,0.013203,-0.324344,-0.945847,0.006481,-0.001095,0.004486,12.574373,-1.038617,-30.577637,,,,,,,
1504195895.533940,0.014062,0.330061,-0.189189,-0.024469,-0.011661,-0.041967,0.013303,-0.324101,-0.945929,0.003634,-0.000133,0.003973,12.574373,-1.038617,-30.577637,,,,,,,
1504195895.543950,0.014161,0.329835,-0.189625,-0.024396,-0.002070,-0.040918,0.013397,-0.323887,-0.946001,0.001069,-0.000668,0.002886,12.650393,-1.263883,-30.275726,,,,,,,
1504195895.553960,0.014567,0.329513,-0.190066,-0.030506,0.035278,-0.039928,0.013782,-0.323582,-0.946100,0.001583,0.001637,0.000375,12.650393,-1.263883,-30.275726,,,,,,,
1504195895.563970,0.015544,0.329055,-0.190475,-0.034266,0.101375,-0.037917,0.014709,-0.323149,-0.946234,-0.000503,0.005400,-0.003534,12.799868,-1.187757,-30.500946,,,,,,,
1504195895.573979,0.017109,0.328515,-0.190791,-0.039109,0.169599,-0.029504,0.016193,-0.322638,-0.946384,-0.005237,0.007498,-0.002270,12.799868,-1.187757,-30.500946,,,,,,,
1504195895.583989,0.019111,0.327888,-0.190911,-0.052806,0.205917,-0.008243,0.018091,-0.322045,-0.946552,-0.004191,0.007149,-0.001462,12.800280,-1.263059,-30.350372,,,,,,,
1504195895.593999,0.021078,0.327117,-0.190870,-0.078590,0.192262,0.004546,0.019959,-0.321314,-0.946762,-0.002869,0.002314,-0.000656,12.800280,-1.263059,-30.350372,,,,,,,
1504195895.604009,0.022684,0.326203,-0.190808,-0.101497,0.131718,0.008878,0.021486,-0.320449,-0.947022,0.006835,-0.006059,-0.005828,13.099794,-1.111569,-30.425751,,,,,,,
1504195895.614017,0.023643,0.325267,-0.190787,-0.093588,0.051755,0.006889,0.022401,-0.319562,-0.947301,0.014098,-0.008411,-0.015483,13.099794,-1.111569,-30.425751,,,,,,,
1504195895.624027,0.023907,0.324620,-0.190878,-0.050369,-0.021027,-0.004659,0.022656,-0.318949,-0.947501,0.016757,-0.004537,-0.014810,13.250048,-1.036481,-30.125946,,,,,,,
1504195895.634037,0.023661,0.324579,-0.191198,0.014334,-0.081186,-0.024734,0.022424,-0.318910,-0.947520,0.020118,-0.003310,-0.010107,13.250048,-1.036481,-30.125946,,,,,,,
1504195895.644047,0.022963,0.325090,-0.191718,0.078122,-0.120033,-0.042710,0.021758,-0.319394,-0.947372,0.015550,0.004498,-0.006058,13.024828,-1.037198,-30.276520,,,,,,,
1504195895.654058,0.021952,0.325977,-0.192377,0.121741,-0.142743,-0.057545,0.020795,-0.320234,-0.947110,0.009937,0.012968,-0.004718,13.024828,-1.037198,-30.276520,,,,,,,
1504195895.664067,0.020806,0.327079,-0.193054,0.132376,-0.144954,-0.057527,0.019702,-0.321278,-0.946780,0.006787,0.011723,-0.004941,12.574709,-0.814816,-29.979309,,,,,,,
1504195895.674077,0.019733,0.328130,-0.193659,0.116498,-0.123514,-0.051190,0.018679,-0.322273,-0.946462,0.003813,0.007713,-0.009424,12.574709,-0.814816,-29.979309,,,,,,,
1504195895.684087,0.019014,0.328951,-0.194183,0.078480,-0.072057,-0.048144,0.017993,-0.323051,-0.946211,-0.000491,0.001228,-0.009646,12.724825,-1.038541,-30.277252,,,,,,,
1504195895.694097,0.018993,0.329337,-0.194681,0.024671,0.004040,-0.047303,0.017971,-0.323415,-0.946086,-0.001217,-0.004389,-0.010365,12.724825,-1.038541,-30.277252,,,,,,,
1504195895.704106,0.019728,0.329205,-0.195199,-0.027000,0.077992,-0.050724,0.018667,-0.323291,-0.946116,-0.003012,-0.005170,-0.011923,12.874758,-0.963025,-30.202454,,,,,,,
1504195895.714116,0.021113,0.328673,-0.195704,-0.057454,0.138980,-0.050883,0.019982,-0.322787,-0.946261,-0.002816,-0.004941,-0.013655,12.874758,-0.963025,-30.202454,,,,,,,
1504195895.724126,0.022866,0.327997,-0.196239,-0.064717,0.163550,-0.053074,0.021645,-0.322147,-0.946442,-0.002282,-0.003125,-0.011123,12.799837,-1.038205,-30.277069,,,,,,,
1504195895.734105,0.024676,0.327408,-0.196839,-0.052010,0.149602,-0.056232,0.023363,-0.321589,-0.946591,0.002730,-0.002065,-0.006473,12.799837,-1.038205,-30.277069,,,,,,,
1504195895.744115,0.026301,0.327042,-0.197502,-0.025641,0.111040,-0.057192,0.024904,-0.321243,-0.946669,0.009916,-0.000717,-0.003404,12.950319,-1.187680,-30.200592,,,,,,,
1504195895.754125,0.027521,0.326984,-0.198207,0.010264,0.063881,-0.059190,0.026059,-0.321188,-0.946657,0.014148,0.001807,-0.003920,12.950319,-1.187680,-30.200592,,,,,,,
1504195895.764134,0.028402,0.327275,-0.198944,0.047347,0.031630,-0.060146,0.026891,-0.321464,-0.946540,0.015223,0.004142,-0.004678,13.100130,-1.112012,-30.200775,,,,,,,
1504195895.774144,0.029136,0.327762,-0.199703,0.062174,0.018744,-0.060107,0.027581,-0.321925,-0.946363,0.016243,0.005214,-0.002733,13.100130,-1.112012,-30.200775,,,,,,,
1504195895.784153,0.029770,0.328293,-0.200361,0.064227,0.017670,-0.047302,0.028176,-0.322428,-0.946175,0.015067,0.005198,-0.004875,12.949938,-1.037686,-30.201721,,,,,,,
1504195895.794163,0.030348,0.328772,-0.200749,0.055628,0.027321,-0.020657,0.028718,-0.322881,-0.946004,0.012756,0.004461,-0.006999,12.949938,-1.037686,-30.201721,,,,,,,
1504195895.804173,0.030944,0.329176,-0.200836,0.042768,0.038071,0.007047,0.029278,-0.323264,-0.945856,0.011860,0.002677,-0.003912,13.025240,-1.336759,-30.499268,,,,,,,
1504195895.814183,0.031565,0.329451,-0.200639,0.028847,0.048831,0.033682,0.029862,-0.323523,-0.945749,0.011901,0.002875,-0.000830,13.025240,-1.336759,-30.499268,,,,,,,
1504195895.824193,0.032092,0.329680,-0.200189,0.025466,0.041395,0.057164,0.030359,-0.323740,-0.945659,0.013343,0.004191,0.002666,13.025774,-1.412198,-30.273682,,,,,,,
1504195895.834203,0.032362,0.329868,-0.199530,0.019866,0.020129,0.075330,0.030611,-0.323918,-0.945590,0.013563,0.005300,0.005648,13.025774,-1.412198,-30.273682,,,,,,,
1504195895.844213,0.032401,0.330022,-0.198780,0.018665,0.005235,0.077482,0.030647,-0.324064,-0.945539,0.012047,0.005414,0.004483,13.250658,-1.411038,-30.348145,,,,,,,
1504195895.854222,0.032452,0.330136,-0.198076,0.015560,0.013806,0.071051,0.030694,-0.324172,-0.945500,0.009650,0.004424,0.001515,13.250658,-1.411038,-30.348145,,,,,,,
1504195895.864232,0.032486,0.330245,-0.197355,0.015608,0.021269,0.072102,0.030725,-0.324275,-0.945464,0.004187,0.004680,0.001189,13.251665,-1.636640,-30.046448,,,,,,,
1504195895.874242,0.032365,0.330359,-0.196512,0.018737,0.019099,0.081718,0.030609,-0.324382,-0.945431,-0.002274,0.006084,0.001659,13.251665,-1.636640,-30.046448,,,,,,,
1504195895.884252,0.032154,0.330563,-0.195570,0.023982,0.013713,0.090278,0.030408,-0.324576,-0.945371,-0.003706,0.004416,0.002729,13.100725,-1.486569,-30.422943,,,,,,,
1504195895.894261,0.031855,0.330872,-0.194503,0.032421,0.009364,0.102043,0.030122,-0.324868,-0.945279,-0.003450,0.005410,0.009305,13.100725,-1.486569,-30.422943,,,,,,,
1504195895.904271,0.031416,0.331151,-0.193361,0.025879,-0.004445,0.107394,0.029704,-0.325132,-0.945202,-0.003597,0.007886,0.013043,13.026003,-1.412503,-30.123688,,,,,,,
1504195895.914281,0.030834,0.331242,-0.192261,0.003417,-0.017045,0.097773,0.029154,-0.325218,-0.945190,-0.005548,0.006874,0.012786,13.026003,-1.412503,-30.123688,,,,,,,
1504195895.924291,0.030221,0.331071,-0.191299,-0.021059,-0.017902,0.082791,0.028576,-0.325056,-0.945263,-0.005505,0.003798,0.003567,13.026415,-1.712049,-30.346436,,,,,,,
1504195895.934299,0.029728,0.330744,-0.190408,-0.034766,-0.000747,0.077404,0.028113,-0.324747,-0.945383,-0.008810,0.000940,0.000238,13.026415,-1.712049,-30.346436,,,,,,,
1504195895.944280,0.029330,0.330401,-0.189437,-0.032480,0.022650,0.083779,0.027739,-0.324422,-0.945506,-0.014830,0.001866,0.001399,13.325731,-1.485547,-30.422394,,,,,,,
1504195895.954288,0.029015,0.330187,-0.188413,-0.018504,0.037422,0.085922,0.027443,-0.324220,-0.945583,-0.020699,0.002367,0.003353,13.325731,-1.485547,-30.422394,,,,,,,
1504195895.964298,0.028716,0.330051,-0.187383,-0.005760,0.031961,0.088097,0.027163,-0.324091,-0.945636,-0.018557,0.005182,0.004214,13.176439,-1.636670,-30.196655,,,,,,,
1504195895.974308,0.028236,0.330049,-0.186328,0.019598,0.005085,0.092465,0.026709,-0.324089,-0.945650,-0.015829,0.009956,0.001314,13.176439,-1.636670,-30.196655,,,,,,,
1504195895.984318,0.027344,0.330304,-0.185176,0.049024,-0.041011,0.105412,0.025863,-0.324330,-0.945590,-0.013122,0.012593,0.001270,13.099749,-0.962018,-30.201904,,,,,,,
1504195895.994328,0.025926,0.330818,-0.183980,0.066721,-0.093391,0.107675,0.024518,-0.324817,-0.945459,-0.011212,0.010944,0.003626,13.099749,-0.962018,-30.201904,,,,,,,
1504195896.004338,0.024126,0.331466,-0.182880,0.073923,-0.132882,0.096020,0.022811,-0.325430,-0.945291,-0.009902,0.006933,-0.001700,12.876146,-1.562879,-30.272949,,,,,,,
1504195896.014348,0.022256,0.332109,-0.181935,0.072927,-0.132873,0.080013,0.021038,-0.326038,-0.945123,-0.009945,0.005222,-0.007636,12.876146,-1.562879,-30.272949,,,,,,,
1504195896.024358,0.020602,0.332715,-0.181086,0.064675,-0.101916,0.071412,0.019471,-0.326610,-0.944959,-0.014481,0.003978,-0.007251,13.100771,-1.411862,-30.273499,,,,,,,
1504195896.034368,0.019157,0.333216,-0.180234,0.051108,-0.066668,0.066000,0.018103,-0.327084,-0.944822,-0.023001,0.002667,-0.004763,13.100771,-1.411862,-30.273499,,,,,,,
1504195896.044377,0.018109,0.333545,-0.179442,0.031272,-0.018581,0.055220,0.017110,-0.327395,-0.944733,-0.027867,0.000582,-0.006287,13.101412,-1.711713,-30.346252,,,,,,,
1504195896.054387,0.017539,0.333746,-0.178776,0.020002,0.031564,0.041250,0.016570,-0.327585,-0.944676,-0.032577,0.000284,-0.008876,13.101412,-1.711713,-30.346252,,,,,,,
1504195896.064397,0.017389,0.333878,-0.178222,0.011786,0.065694,0.031584,0.016428,-0.327709,-0.944636,-0.033915,0.000500,-0.004629,13.176409,-1.711377,-30.346069,,,,,,,
1504195896.074407,0.017528,0.333952,-0.177758,0.000253,0.085998,0.024071,0.016559,-0.327780,-0.944609,-0.032794,-0.003107,-0.000688,13.176409,-1.711377,-30.346069,,,,,,,
1504195896.084416,0.017735,0.333955,-0.177327,-0.006181,0.080684,0.023015,0.016755,-0.327782,-0.944605,-0.030030,-0.004249,-0.004034,13.251329,-1.636197,-30.271454,,,,,,,
1504195896.094426,0.017754,0.333990,-0.176964,-0.007525,0.042304,0.018821,0.016772,-0.327815,-0.944593,-0.024158,-0.006765,-0.001543,13.251329,-1.636197,-30.271454,,,,,,,
1504195896.104436,0.017564,0.334093,-0.176764,0.000742,-0.000393,0.006108,0.016592,-0.327913,-0.944562,-0.013692,-0.007582,-0.000399,13.327013,-1.861005,-30.194580,,,,,,,
1504195896.114446,0.017207,0.334282,-0.176839,0.016587,-0.035674,-0.017283,0.016253,-0.328091,-0.944506,-0.006671,-0.004688,-0.000547,13.327013,-1.861005,-30.194580,,,,,,,
1504195896.124424,0.016647,0.334641,-0.177153,0.035633,-0.066721,-0.034272,0.015723,-0.328430,-0.944397,-0.003104,-0.001297,0.004700,13.551516,-1.709836,-30.270142,,,,,,,
1504195896.134434,0.015892,0.335179,-0.177527,0.049396,-0.082821,-0.037420,0.015007,-0.328939,-0.944232,-0.004326,-0.001170,0.007312,13.551516,-1.709836,-30.270142,,,,,,,
1504195896.144444,0.015058,0.335787,-0.177859,0.058997,-0.080783,-0.033135,0.014216,-0.329513,-0.944044,-0.005870,-0.000230,0.005110,13.175356,-1.336225,-30.423889,,,,,,,
1504195896.154454,0.014339,0.336472,-0.178141,0.069804,-0.061704,-0.029944,0.013534,-0.330159,-0.943828,-0.006912,0.000447,0.001201,13.175356,-1.336225,-30.423889,,,,,,,
1504195896.164433,0.013792,0.337164,-0.178507,0.071057,-0.046796,-0.043839,0.013015,-0.330812,-0.943607,-0.009994,0.003892,0.004734,13.176821,-1.786679,-30.195526,,,,,,,
1504195896.174443,0.013358,0.337662,-0.179037,0.047706,-0.041274,-0.059895,0.012603,-0.331282,-0.943448,-0.010528,0.004332,0.004605,13.176821,-1.786679,-30.195526,,,,,,,
1504195896.184453,0.013037,0.337909,-0.179689,0.024260,-0.042148,-0.067402,0.012299,-0.331515,-0.943370,-0.006959,0.001345,-0.004949,12.651522,-1.713895,-30.272369,,,,,,,
1504195896.194463,0.012697,0.338017,-0.180400,0.011488,-0.042049,-0.073824,0.011979,-0.331617,-0.943338,-0.009018,-0.000720,-0.005865,12.651522,-1.713895,-30.272369,,,,,,,
1504195896.204473,0.012434,0.338021,-0.181130,0.001952,-0.033457,-0.073851,0.011730,-0.331621,-0.943340,-0.008510,0.001497,-0.001469,13.101000,-1.636411,-30.496826,,,,,,,
1504195896.214483,0.012286,0.337946,-0.181886,-0.005409,-0.021684,-0.077083,0.011591,-0.331550,-0.943366,-0.008921,0.003684,0.004997,13.101000,-1.636411,-30.496826,,,,,,,
1504195896.224493,0.012226,0.337775,-0.182689,-0.009660,-0.021654,-0.081356,0.011535,-0.331388,-0.943424,-0.007628,0.006452,0.007618,12.876192,-1.712430,-30.496826,,,,,,,
1504195896.234501,0.012158,0.337619,-0.183604,-0.008630,-0.032314,-0.092006,0.011471,-0.331241,-0.943476,-0.005124,0.005817,0.006877,12.876192,-1.712430,-30.496826,,,,,,,
1504195896.244511,0.012118,0.337553,-0.184603,-0.001221,-0.040896,-0.094113,0.011434,-0.331179,-0.943499,0.000956,0.004900,0.009600,13.026155,-1.562207,-30.272552,,,,,,,
1504195896.254521,0.012058,0.337643,-0.185565,0.013669,-0.042088,-0.086615,0.011377,-0.331264,-0.943469,0.003088,0.004329,0.012409,13.026155,-1.562207,-30.272552,,,,,,,
1504195896.264531,0.012163,0.337935,-0.186418,0.029813,-0.017719,-0.074891,0.011474,-0.331540,-0.943371,0.004105,0.003003,0.014767,13.101595,-1.786710,-30.345703,,,,,,,
1504195896.274540,0.012490,0.338307,-0.187133,0.035335,0.012063,-0.064261,0.011782,-0.331891,-0.943244,0.000532,0.004315,0.016563,13.101595,-1.786710,-30.345703,,,,,,,
1504195896.284550,0.012997,0.338685,-0.187759,0.032223,0.028067,-0.055756,0.012259,-0.332247,-0.943113,0.001368,0.003833,0.017820,12.951403,-1.712384,-30.346649,,,,,,,
1504195896.294560,0.013577,0.338906,-0.188392,0.014087,0.027158,-0.056856,0.012805,-0.332456,-0.943032,0.004544,0.002012,0.013665,12.951403,-1.712384,-30.346649,,,,,,,
1504195896.304570,0.014204,0.339024,-0.189094,0.004408,0.015536,-0.058994,0.013395,-0.332567,-0.942985,0.012331,-0.000716,0.009925,12.726107,-1.638257,-30.422729,,,,,,,
1504195896.314580,0.014825,0.339163,-0.189860,0.007574,0.007013,-0.064319,0.013980,-0.332698,-0.942930,0.016186,-0.001760,0.009916,12.726107,-1.638257,-30.422729,,,,,,,
1504195896.324589,0.015385,0.339362,-0.190730,0.013928,-0.005793,-0.073901,0.014507,-0.332885,-0.942856,0.016392,-0.000199,0.014694,13.026522,-1.712201,-30.271423,,,,,,,
1504195896.334599,0.015889,0.339603,-0.191687,0.018165,-0.014322,-0.080293,0.014981,-0.333113,-0.942768,0.017444,0.001234,0.015308,13.026522,-1.712201,-30.271423,,,,,,,
1504195896.344609,0.016249,0.339830,-0.192640,0.016991,-0.027079,-0.078146,0.015319,-0.333327,-0.942687,0.015992,0.001433,0.014510,13.026186,-1.711759,-30.496429,,,,,,,
1504195896.354620,0.016528,0.340046,-0.193541,0.013789,-0.025971,-0.074959,0.015581,-0.333530,-0.942611,0.014250,0.000034,0.012404,13.026186,-1.711759,-30.496429,,,,,,,
1504195896.364629,0.016804,0.340194,-0.194395,0.003174,-0.019475,-0.073927,0.015841,-0.333670,-0.942557,0.011396,-0.001505,0.012869,13.100954,-1.486859,-30.272949,,,,,,,
1504195896.374609,0.017138,0.340215,-0.195277,-0.010600,-0.011884,-0.079307,0.016155,-0.333690,-0.942545,0.009663,-0.001805,0.013513,13.100954,-1.486859,-30.272949,,,,,,,
1504195896.384618,0.017459,0.340144,-0.196184,-0.019113,-0.010735,-0.080396,0.016458,-0.333623,-0.942563,0.008582,-0.001232,0.015164,13.250841,-1.486035,-30.347595,,,,,,,
1504195896.394628,0.017924,0.340063,-0.197088,-0.015778,0.006298,-0.078290,0.016897,-0.333546,-0.942582,0.008921,-0.001979,0.013108,13.250841,-1.486035,-30.347595,,,,,,,
1504195896.404637,0.018656,0.340016,-0.197937,-0.001593,0.044585,-0.076210,0.017587,-0.333502,-0.942585,0.005622,0.002905,0.013081,13.101152,-1.561872,-30.272369,,,,,,,
1504195896.414647,0.019634,0.340026,-0.198716,0.007140,0.074345,-0.068777,0.018508,-0.333512,-0.942564,0.001099,0.007187,0.014082,13.101152,-1.561872,-30.272369,,,,,,,
1504195896.424656,0.020626,0.340037,-0.199305,0.007035,0.074328,-0.048498,0.019443,-0.333522,-0.942542,0.001278,0.007671,0.013343,13.026155,-1.562207,-30.272552,,,,,,,
1504195896.434666,0.021432,0.340027,-0.199685,-0.002877,0.048822,-0.027126,0.020203,-0.333512,-0.942529,0.005813,0.002793,0.007638,13.026155,-1.562207,-30.272552,,,,,,,
1504195896.444676,0.021964,0.339995,-0.199950,-0.012834,0.011613,-0.014275,0.020705,-0.333482,-0.942529,0.013459,-0.003401,0.006006,12.951342,-1.637540,-30.272186,,,,,,,
1504195896.454686,0.022167,0.339937,-0.200181,-0.015323,-0.030970,-0.009945,0.020896,-0.333427,-0.942544,0.019646,-0.003792,0.006509,12.951342,-1.637540,-30.272186,,,,,,,
1504195896.464695,0.022067,0.339906,-0.200425,-0.006971,-0.056583,-0.013098,0.020803,-0.333399,-0.942556,0.021113,-0.002234,0.005987,13.026934,-1.787503,-30.120880,,,,,,,
1504195896.474705,0.021895,0.339969,-0.200774,0.008014,-0.058802,-0.025886,0.020640,-0.333458,-0.942539,0.018193,0.001106,0.006748,13.026934,-1.787503,-30.120880,,,,,,,
1504195896.484715,0.021875,0.340106,-0.201248,0.016830,-0.031140,-0.037668,0.020620,-0.333587,-0.942494,0.013010,0.003249,0.009755,13.026339,-1.637204,-30.272003,,,,,,,
1504195896.494725,0.022130,0.340180,-0.201656,0.005397,0.011579,-0.030295,0.020861,-0.333657,-0.942464,0.005934,0.003716,0.008855,13.026339,-1.637204,-30.272003,,,,,,,
1504195896.504735,0.022553,0.340108,-0.201781,-0.023266,0.044823,-0.004785,0.021259,-0.333589,-0.942479,0.000180,-0.001952,0.008153,13.026857,-1.712644,-30.046417,,,,,,,
1504195896.514745,0.023040,0.339740,-0.201646,-0.054104,0.067430,0.012203,0.021721,-0.333242,-0.942591,-0.005913,-0.006495,0.000224,13.026857,-1.712644,-30.046417,,,,,,,
1504195896.524755,0.023727,0.339219,-0.201439,-0.063600,0.082419,0.016432,0.022373,-0.332751,-0.942749,-0.003452,-0.007719,-0.002716,13.025805,-1.337506,-30.124268,,,,,,,
1504195896.534765,0.024565,0.338744,-0.201258,-0.052936,0.082333,0.018584,0.023167,-0.332303,-0.942888,0.002407,-0.006442,-0.000578,13.025805,-1.337506,-30.124268,,,,,,,
1504195896.544775,0.025184,0.338488,-0.201041,-0.025522,0.044814,0.025098,0.023753,-0.332061,-0.942959,0.006902,-0.002747,0.004680,13.250582,-1.336194,-30.273712,,,,,,,
1504195896.554783,0.025316,0.338485,-0.200838,-0.000396,-0.015053,0.026309,0.023877,-0.332059,-0.942957,0.011264,-0.001117,0.006082,13.250582,-1.336194,-30.273712,,,,,,,
1504195896.564793,0.024955,0.338682,-0.200700,0.025859,-0.070655,0.021107,0.023535,-0.332244,-0.942900,0.016276,0.001129,0.002272,13.101412,-1.711713,-30.346252,,,,,,,
1504195896.574803,0.024278,0.339096,-0.200682,0.048068,-0.101708,0.010517,0.022893,-0.332635,-0.942778,0.018488,0.002419,0.002226,13.101412,-1.711713,-30.346252,,,,,,,
1504195896.584782,0.023561,0.339590,-0.200750,0.044968,-0.095259,0.000885,0.022213,-0.333101,-0.942630,0.015751,0.001298,0.006457,13.100588,-1.336865,-30.274078,,,,,,,
1504195896.594792,0.023053,0.339927,-0.200862,0.025036,-0.057781,-0.006691,0.021732,-0.333418,-0.942529,0.008602,0.000075,0.004494,13.100588,-1.336865,-30.274078,,,,,,,
1504195896.604802,0.022890,0.339969,-0.200898,-0.005502,-0.004254,-0.001501,0.021578,-0.333458,-0.942518,0.000578,-0.001061,0.000090,12.950884,-1.412686,-30.198883,,,,,,,
1504195896.614811,0.023113,0.339759,-0.200775,-0.031853,0.044960,0.013312,0.021790,-0.333260,-0.942583,-0.004410,-0.003319,-0.000395,12.950884,-1.412686,-30.198883,,,,,,,
1504195896.624821,0.023550,0.339414,-0.200430,-0.045591,0.072750,0.032457,0.022205,-0.332934,-0.942689,-0.007892,-0.004880,-0.000350,12.875429,-1.188169,-30.125763,,,,,,,
1504195896.634831,0.024074,0.339032,-0.199957,-0.045552,0.082322,0.040984,0.022701,-0.332574,-0.942804,-0.007641,-0.004172,0.001306,12.875429,-1.188169,-30.125763,,,,,,,
1504195896.644841,0.024670,0.338697,-0.199476,-0.031758,0.074744,0.044224,0.023266,-0.332258,-0.942901,-0.002041,-0.001116,0.000305,13.026567,-1.637494,-30.122009,,,,,,,
1504195896.654851,0.025097,0.338476,-0.199063,-0.019128,0.048010,0.035754,0.023670,-0.332050,-0.942965,0.000439,0.001850,0.000857,13.026567,-1.637494,-30.122009,,,,,,,
1504195896.664860,0.025226,0.338257,-0.198842,-0.011886,0.008545,0.016621,0.023794,-0.331844,-0.943034,0.001505,0.005550,0.000041,12.801180,-1.488507,-30.123688,,,,,,,
1504195896.674870,0.025148,0.338078,-0.198811,-0.003490,-0.017079,0.001734,0.023722,-0.331674,-0.943096,0.003988,0.004800,-0.007527,12.801180,-1.488507,-30.123688,,,,,,,
1504195896.684880,0.024964,0.338073,-0.198819,0.011428,-0.019330,0.000695,0.023548,-0.331670,-0.943101,0.001644,0.003179,-0.006010,13.025576,-1.337201,-30.274261,,,,,,,
1504195896.694890,0.024757,0.338251,-0.198740,0.025359,-0.006671,0.008171,0.023352,-0.331838,-0.943047,-0.004156,0.002950,-0.000114,13.025576,-1.337201,-30.274261,,,,,,,
1504195896.704900,0.024623,0.338528,-0.198532,0.027552,0.008210,0.019893,0.023223,-0.332099,-0.942959,-0.006286,0.002509,0.003887,13.025805,-1.337506,-30.124268,,,,,,,
1504195896.714910,0.024651,0.338816,-0.198234,0.026633,0.030580,0.026260,0.023247,-0.332371,-0.942862,-0.007088,-0.000026,0.001670,13.025805,-1.337506,-30.124268,,,,,,,
1504195896.724920,0.024947,0.339020,-0.197889,0.020439,0.059388,0.030472,0.023525,-0.332563,-0.942788,-0.007549,0.000775,-0.001853,12.800768,-1.413205,-30.274231,,,,,,,
1504195896.734930,0.025404,0.339109,-0.197486,0.003400,0.068040,0.037902,0.023955,-0.332647,-0.942747,-0.005584,0.000372,0.001371,12.800768,-1.413205,-30.274231,,,,,,,
1504195896.744938,0.025829,0.339083,-0.197044,-0.013744,0.059650,0.040023,0.024356,-0.332622,-0.942746,-0.003573,-0.003727,-0.000568,13.025774,-1.412198,-30.273682,,,,,,,
1504195896.754948,0.026081,0.338901,-0.196668,-0.027788,0.032068,0.031509,0.024594,-0.332451,-0.942800,-0.001294,-0.005394,-0.003245,13.025774,-1.412198,-30.273682,,,,,,,
1504195896.764958,0.026126,0.338666,-0.196430,-0.024792,0.000088,0.021963,0.024639,-0.332229,-0.942877,0.002369,-0.003708,-0.004023,13.025545,-1.411908,-30.423676,,,,,,,
1504195896.774968,0.025921,0.338502,-0.196236,-0.014339,-0.027697,0.020961,0.024448,-0.332074,-0.942936,0.004712,-0.001315,-0.001278,13.025545,-1.411908,-30.423676,,,,,,,
1504195896.784977,0.025456,0.338401,-0.196045,-0.010200,-0.045841,0.017797,0.024010,-0.331980,-0.942981,0.002205,0.000711,0.003635,13.101030,-1.561719,-30.347382,,,,,,,
1504195896.794957,0.025000,0.338291,-0.195898,-0.000501,-0.036325,0.012460,0.023581,-0.331875,-0.943029,0.000086,0.004254,-0.002772,13.101030,-1.561719,-30.347382,,,,,,,
1504195896.804966,0.024765,0.338302,-0.195744,0.017866,-0.004515,0.015638,0.023359,-0.331886,-0.943030,-0.001966,0.006477,-0.004739,13.175844,-1.486371,-30.347778,,,,,,,
1504195896.814976,0.024774,0.338459,-0.195449,0.026579,0.027360,0.029475,0.023366,-0.332034,-0.942978,-0.005681,0.006686,0.000244,13.175844,-1.486371,-30.347778,,,,,,,
1504195896.824986,0.024896,0.338695,-0.194974,0.029870,0.048618,0.044392,0.023480,-0.332256,-0.942897,-0.009441,0.005154,0.000163,13.250765,-1.411191,-30.273132,,,,,,,
1504195896.834996,0.025002,0.338954,-0.194359,0.031911,0.044315,0.055081,0.023577,-0.332501,-0.942808,-0.010164,0.003339,-0.003344,13.250765,-1.411191,-30.273132,,,,,,,
1504195896.845006,0.024954,0.339273,-0.193737,0.034904,0.018708,0.055135,0.023529,-0.332801,-0.942703,-0.006576,0.002662,-0.000564,12.801332,-1.638211,-30.272552,,,,,,,
1504195896.855016,0.024666,0.339592,-0.193228,0.029325,-0.018533,0.044518,0.023255,-0.333103,-0.942604,-0.001572,0.002079,0.003639,12.801332,-1.638211,-30.272552,,,,,,,
1504195896.865026,0.024190,0.339867,-0.192911,0.021646,-0.053614,0.030688,0.022804,-0.333362,-0.942523,0.005257,0.001101,0.006274,13.176332,-1.636533,-30.271637,,,,,,,
1504195896.875036,0.023616,0.340065,-0.192743,0.006664,-0.067321,0.018941,0.022262,-0.333548,-0.942470,0.008927,-0.003000,0.006420,13.176332,-1.636533,-30.271637,,,,,,,
1504195896.885046,0.023038,0.340100,-0.192637,-0.008124,-0.055463,0.009286,0.021716,-0.333582,-0.942471,0.004102,-0.003790,0.004452,12.801378,-1.563519,-30.123138,,,,,,,
1504195896.895054,0.022606,0.339951,-0.192550,-0.026021,-0.028674,0.004940,0.021311,-0.333441,-0.942530,-0.002497,-0.003199,0.004832,12.801378,-1.563519,-30.123138,,,,,,,
1504195896.905064,0.022450,0.339747,-0.192392,-0.024650,0.012857,0.011278,0.021165,-0.333249,-0.942601,-0.007890,-0.002628,0.001104,13.101519,-1.711865,-30.271240,,,,,,,
1504195896.915074,0.022469,0.339550,-0.192105,-0.015906,0.043661,0.018718,0.021184,-0.333063,-0.942667,-0.015523,0.000681,0.000543,13.101519,-1.711865,-30.271240,,,,,,,
1504195896.925084,0.022584,0.339438,-0.191805,-0.007328,0.047834,0.016599,0.021294,-0.332958,-0.942701,-0.017235,0.002452,0.003248,13.176180,-1.486829,-30.122772,,,,,,,
1504195896.935093,0.022686,0.339335,-0.191637,-0.002090,0.029671,0.005972,0.021391,-0.332860,-0.942733,-0.012480,0.003789,-0.000153,13.176180,-1.486829,-30.122772,,,,,,,
1504195896.945103,0.022626,0.339291,-0.191607,0.005129,-0.005552,-0.001422,0.021334,-0.332819,-0.942750,-0.005465,0.003549,-0.002944,13.026522,-1.712201,-30.271423,,,,,,,
1504195896.955113,0.022299,0.339368,-0.191607,0.013417,-0.035461,-0.000287,0.021026,-0.332891,-0.942731,-0.002441,0.000723,-0.003635,13.026522,-1.712201,-30.271423,,,,,,,
1504195896.965123,0.021662,0.339671,-0.191545,0.028126,-0.061166,0.005123,0.020423,-0.333177,-0.942643,-0.002631,-0.002593,0.000688,13.026186,-1.487500,-30.123138,,,,,,,
1504195896.975132,0.020840,0.340116,-0.191453,0.036580,-0.072963,0.004094,0.019645,-0.333596,-0.942511,-0.004707,-0.004340,0.004355,13.026186,-1.487500,-30.123138,,,,,,,
1504195896.985142,0.020014,0.340620,-0.191405,0.044139,-0.065570,-0.001239,0.018863,-0.334071,-0.942359,-0.007083,-0.003041,0.003272,12.801149,-1.563214,-30.273132,,,,,,,
1504195896.995152,0.019366,0.341099,-0.191433,0.041150,-0.044236,-0.008749,0.018249,-0.334523,-0.942211,-0.008636,-0.000804,0.005321,12.801149,-1.563214,-30.273132,,,,,,,
1504195897.005131,0.018994,0.341442,-0.191528,0.026497,-0.014283,-0.017361,0.017897,-0.334846,-0.942103,-0.010710,-0.000115,0.003169,13.026720,-1.787198,-30.270874,,,,,,,
1504195897.015141,0.018910,0.341541,-0.191693,0.000104,0.015762,-0.024925,0.017817,-0.334939,-0.942071,-0.013514,-0.001838,0.001031,13.026720,-1.787198,-30.270874,,,,,,,
1504195897.025151,0.019156,0.341332,-0.191949,-0.026373,0.036223,-0.031407,0.018050,-0.334743,-0.942137,-0.009307,-0.002049,-0.002947,12.876558,-1.638181,-30.122375,,,,,,,
1504195897.035161,0.019683,0.340967,-0.192256,-0.037926,0.057624,-0.033596,0.018548,-0.334399,-0.942249,-0.007180,-0.003492,-0.006115,12.876558,-1.638181,-30.122375,,,,,,,
1504195897.045171,0.020321,0.340613,-0.192555,-0.031529,0.059694,-0.029317,0.019153,-0.334065,-0.942355,-0.004153,-0.001338,-0.002850,13.026445,-1.637357,-30.197021,,,,,,,
1504195897.055181,0.020843,0.340422,-0.192787,-0.008253,0.041376,-0.019637,0.019645,-0.333885,-0.942409,-0.001655,0.001625,-0.000050,13.026445,-1.637357,-30.197021,,,,,,,
1504195897.065191,0.021164,0.340512,-0.192963,0.025636,0.014453,-0.013128,0.019947,-0.333970,-0.942373,0.002285,0.004441,-0.000346,12.426332,-1.639905,-30.273468,,,,,,,
1504195897.075201,0.021222,0.340912,-0.193114,0.056306,-0.016698,-0.009820,0.019999,-0.334346,-0.942238,0.005590,0.007244,0.004296,12.426332,-1.639905,-30.273468,,,,,,,
1504195897.085209,0.021041,0.341549,-0.193266,0.075236,-0.047748,-0.005468,0.019824,-0.334947,-0.942028,0.010770,0.007020,0.005749,12.951189,-1.487836,-30.123322,,,,,,,
1504195897.095219,0.020646,0.342305,-0.193379,0.079313,-0.068019,-0.000095,0.019447,-0.335660,-0.941783,0.012764,0.004864,0.005335,12.951189,-1.487836,-30.123322,,,,,,,
1504195897.105229,0.020165,0.343069,-0.193408,0.071777,-0.071147,0.008431,0.018988,-0.336379,-0.941535,0.013009,0.003554,0.010078,13.251558,-1.636487,-30.121460,,,,,,,
1504195897.115239,0.019597,0.343719,-0.193353,0.051450,-0.074170,0.015867,0.018449,-0.336991,-0.941327,0.011992,0.000046,0.012723,13.251558,-1.636487,-30.121460,,,,,,,
1504195897.125242,0.019162,0.344182,-0.193296,0.030287,-0.055861,0.011523,0.018037,-0.337427,-0.941179,0.012175,-0.001914,0.012148,13.026262,-1.562345,-30.197571,,,,,,,
1504195897.135252,0.019018,0.344449,-0.193324,0.015640,-0.026944,0.000767,0.017900,-0.337678,-0.941091,0.011412,0.000154,0.014089,13.026262,-1.562345,-30.197571,,,,,,,
1504195897.145262,0.019116,0.344583,-0.193430,0.013743,-0.001337,-0.005690,0.017992,-0.337804,-0.941044,0.008116,0.005254,0.014042,12.801302,-1.712918,-30.421997,,,,,,,
1504195897.155272,0.019385,0.344701,-0.193498,0.014983,0.023163,-0.001464,0.018243,-0.337916,-0.941000,0.003851,0.006250,0.012838,12.801302,-1.712918,-30.421997,,,,,,,
1504195897.165282,0.019704,0.344789,-0.193437,0.009721,0.039178,0.009173,0.018543,-0.337999,-0.940964,-0.001438,0.006761,0.013260,12.876909,-1.862882,-30.270691,,,,,,,
1504195897.175291,0.019956,0.344872,-0.193238,0.009618,0.033836,0.020925,0.018780,-0.338077,-0.940931,-0.002575,0.005649,0.010740,12.876909,-1.862882,-30.270691,,,,,,,
1504195897.185301,0.020101,0.344955,-0.192995,0.007402,0.024260,0.022006,0.018916,-0.338154,-0.940901,-0.002909,0.003285,0.009504,13.026567,-1.861753,-30.495331,,,,,,,
1504195897.195311,0.020177,0.345047,-0.192770,0.011602,0.014636,0.019896,0.018986,-0.338241,-0.940868,-0.000859,0.003616,0.006771,13.026567,-1.861753,-30.495331,,,,,,,
1504195897.205321,0.020246,0.345207,-0.192629,0.019086,0.011386,0.011376,0.019050,-0.338391,-0.940813,-0.000343,0.003507,0.006303,12.801638,-1.713361,-30.197021,,,,,,,
1504195897.215300,0.020310,0.345350,-0.192606,0.019138,0.010331,-0.001430,0.019110,-0.338526,-0.940763,-0.002417,0.005656,0.006192,12.801638,-1.713361,-30.197021,,,,,,,
1504195897.225310,0.020417,0.345456,-0.192711,0.013864,0.010386,-0.014248,0.019209,-0.338626,-0.940725,-0.001891,0.005236,0.006277,12.951220,-1.637387,-30.347198,,,,,,,
1504195897.235318,0.020608,0.345541,-0.193006,0.011836,0.012551,-0.032400,0.019388,-0.338705,-0.940693,-0.001398,0.003348,0.004337,12.951220,-1.637387,-30.347198,,,,,,,
1504195897.245328,0.020950,0.345611,-0.193448,0.008769,0.022178,-0.044164,0.019710,-0.338771,-0.940662,-0.001537,0.003032,0.004887,13.026751,-1.712506,-30.121429,,,,,,,
1504195897.255338,0.021242,0.345654,-0.193924,-0.004084,0.014823,-0.045239,0.019984,-0.338812,-0.940642,-0.002223,0.000769,0.011473,13.026751,-1.712506,-30.121429,,,,,,,
1504195897.265348,0.021428,0.345627,-0.194356,-0.013760,0.007436,-0.040972,0.020159,-0.338787,-0.940647,-0.003146,-0.003117,0.008045,13.101854,-1.712308,-30.046234,,,,,,,
1504195897.275357,0.021571,0.345531,-0.194758,-0.021243,0.005362,-0.039912,0.020295,-0.338696,-0.940677,-0.003128,-0.003879,0.006992,13.101854,-1.712308,-30.046234,,,,,,,
1504195897.285367,0.021717,0.345356,-0.195157,-0.025535,0.002198,-0.038846,0.020433,-0.338532,-0.940733,-0.001650,-0.001983,0.009153,12.952013,-1.862683,-30.195526,,,,,,,
1504195897.295377,0.021902,0.345100,-0.195556,-0.034031,0.006531,-0.038868,0.020609,-0.338291,-0.940816,-0.000635,-0.002026,0.008107,12.952013,-1.862683,-30.195526,,,,,,,
1504195897.305387,0.022164,0.344776,-0.195947,-0.030764,0.016091,-0.036744,0.020858,-0.337985,-0.940920,-0.000915,0.001010,0.004183,13.251741,-1.711484,-30.120880,,,,,,,
1504195897.315397,0.022420,0.344488,-0.196254,-0.023330,0.018151,-0.027128,0.021101,-0.337715,-0.941012,-0.000822,0.002861,0.002551,13.251741,-1.711484,-30.120880,,,,,,,
1504195897.325407,0.022531,0.344278,-0.196433,-0.014967,0.004215,-0.015347,0.021207,-0.337517,-0.941080,-0.001600,0.002984,0.002024,13.026522,-1.712201,-30.271423,,,,,,,
1504195897.335417,0.022579,0.344147,-0.196533,-0.004356,0.001989,-0.007853,0.021254,-0.337394,-0.941124,0.000261,0.002891,-0.000695,13.026522,-1.712201,-30.271423,,,,,,,
1504195897.345427,0.022586,0.344072,-0.196551,0.001931,-0.005530,0.001777,0.021261,-0.337323,-0.941149,0.002131,0.005185,0.000307,12.951189,-1.487836,-30.123322,,,,,,,
1504195897.355437,0.022492,0.344017,-0.196488,-0.003489,-0.011883,0.008182,0.021172,-0.337272,-0.941169,0.002113,0.004569,0.004829,12.951189,-1.487836,-30.123322,,,,,,,
1504195897.365446,0.022294,0.343890,-0.196418,-0.015331,-0.025633,0.007117,0.020987,-0.337152,-0.941216,0.003213,0.002054,0.003960,12.951296,-1.712247,-30.421631,,,,,,,
1504195897.375455,0.022093,0.343630,-0.196424,-0.022773,-0.026625,-0.000368,0.020799,-0.336907,-0.941308,0.004057,0.002251,-0.000266,12.951296,-1.712247,-30.421631,,,,,,,
1504195897.385465,0.021944,0.343296,-0.196451,-0.024884,-0.022340,0.000685,0.020662,-0.336593,-0.941424,0.005888,0.003615,-0.002424,13.026033,-1.562055,-30.347565,,,,,,,
1504195897.395475,0.021784,0.342996,-0.196415,-0.023814,-0.018088,0.006015,0.020514,-0.336310,-0.941528,0.002832,0.003684,-0.000443,13.026033,-1.562055,-30.347565,,,,,,,
1504195897.405484,0.021604,0.342694,-0.196287,-0.026982,-0.011648,0.012395,0.020346,-0.336026,-0.941633,-0.000113,0.001553,0.000349,13.026491,-1.786908,-30.420868,,,,,,,
1504195897.415494,0.021484,0.342418,-0.196075,-0.019436,0.003197,0.019855,0.020235,-0.335765,-0.941728,-0.002794,0.000926,-0.005995,13.026491,-1.786908,-30.420868,,,,,,,
1504195897.425473,0.021468,0.342268,-0.195776,-0.005489,0.017988,0.027326,0.020221,-0.335625,-0.941779,-0.003772,0.001976,-0.005777,13.026445,-1.637357,-30.197021,,,,,,,
1504195897.435483,0.021424,0.342229,-0.195414,-0.000235,0.011542,0.032685,0.020181,-0.335587,-0.941793,-0.003228,0.001695,-0.001933,13.026445,-1.637357,-30.197021,,,,,,,
1504195897.445493,0.021282,0.342153,-0.195038,0.000684,-0.005517,0.033784,0.020047,-0.335516,-0.941821,-0.000608,0.002905,-0.006451,12.876558,-1.638181,-30.122375,,,,,,,
1504195897.455503,0.021072,0.342153,-0.194753,0.007042,-0.015150,0.026340,0.019849,-0.335516,-0.941825,0.002017,0.000494,-0.008950,12.876558,-1.638181,-30.122375,,,,,,,
1504195897.465513,0.020892,0.342284,-0.194576,0.022039,-0.013130,0.016754,0.019679,-0.335640,-0.941785,0.002660,0.000908,-0.008426,12.875963,-1.487882,-30.273499,,,,,,,
1504195897.475523,0.020787,0.342577,-0.194460,0.037041,-0.007918,0.011433,0.019577,-0.335916,-0.941688,0.001586,0.002221,-0.002876,12.875963,-1.487882,-30.273499,,,,,,,
1504195897.485533,0.020730,0.342979,-0.194393,0.037126,-0.001520,0.005018,0.019522,-0.336294,-0.941555,-0.000830,0.000219,0.003475,13.176668,-1.636975,-30.046631,,,,,,,
1504195897.495543,0.020739,0.343355,-0.194400,0.024386,0.001788,-0.001414,0.019527,-0.336648,-0.941428,-0.000454,-0.003195,0.004355,13.176668,-1.636975,-30.046631,,,,,,,
1504195897.505553,0.020761,0.343590,-0.194441,0.003017,-0.003361,-0.001442,0.019546,-0.336869,-0.941348,0.001831,-0.007720,0.003803,12.876223,-1.637723,-30.347382,,,,,,,
1504195897.515562,0.020757,0.343682,-0.194465,-0.017256,-0.005323,-0.001474,0.019542,-0.336957,-0.941317,0.001851,-0.012332,0.002703,12.876223,-1.637723,-30.347382,,,,,,,
1504195897.525572,0.020737,0.343610,-0.194471,-0.027892,-0.002039,-0.000431,0.019524,-0.336888,-0.941342,0.000206,-0.010967,0.002347,12.876635,-1.713025,-30.196838,,,,,,,
1504195897.535582,0.020677,0.343454,-0.194429,-0.027962,-0.008438,0.004918,0.019468,-0.336741,-0.941396,-0.000197,-0.007238,0.001393,12.876635,-1.713025,-30.196838,,,,,,,
1504195897.545592,0.020494,0.343351,-0.194313,-0.014193,-0.017084,0.012429,0.019296,-0.336644,-0.941434,-0.000269,-0.003459,0.003232,13.100847,-1.486722,-30.347961,,,,,,,
1504195897.555600,0.020261,0.343403,-0.194188,0.003871,-0.026820,0.012476,0.019077,-0.336694,-0.941421,0.003262,-0.002204,0.003921,13.100847,-1.486722,-30.347961,,,,,,,
1504195897.565610,0.019963,0.343592,-0.194132,0.018764,-0.036522,0.006113,0.018795,-0.336871,-0.941363,0.003757,0.000888,0.007296,12.800966,-1.488217,-30.273682,,,,,,,
1504195897.575620,0.019616,0.343872,-0.194188,0.025140,-0.047213,-0.005601,0.018466,-0.337135,-0.941275,0.005047,0.001518,0.007514,12.800966,-1.488217,-30.273682,,,,,,,
1504195897.585630,0.019276,0.344047,-0.194376,0.010300,-0.043876,-0.019510,0.018145,-0.337300,-0.941222,0.003019,0.001194,0.006606,12.650728,-1.488584,-30.424042,,,,,,,
1504195897.595639,0.019048,0.343944,-0.194609,-0.016233,-0.027670,-0.021720,0.017932,-0.337203,-0.941261,0.001752,0.000594,0.000191,12.650728,-1.488584,-30.424042,,,,,,,
1504195897.605649,0.019113,0.343565,-0.194784,-0.036202,0.014046,-0.016490,0.017995,-0.336846,-0.941388,-0.001653,0.001046,-0.005557,12.650957,-1.488889,-30.274048,,,,,,,
1504195897.615659,0.019509,0.343058,-0.194823,-0.045500,0.059924,-0.004843,0.018371,-0.336368,-0.941551,-0.006423,0.001789,-0.004921,12.650957,-1.488889,-30.274048,,,,,,,
1504195897.625669,0.020163,0.342487,-0.194675,-0.049645,0.086573,0.012184,0.018991,-0.335831,-0.941731,-0.007318,0.003937,-0.001293,12.801714,-1.788220,-30.271423,,,,,,,
1504195897.635648,0.020807,0.341986,-0.194377,-0.043365,0.081172,0.027151,0.019601,-0.335359,-0.941887,-0.006127,0.002870,0.000602,12.801714,-1.788220,-30.271423,,,,,,,
1504195897.645658,0.021285,0.341611,-0.194055,-0.031858,0.053369,0.028288,0.020054,-0.335006,-0.942003,-0.001896,0.002685,0.002427,13.175951,-1.486524,-30.272766,,,,,,,
1504195897.655668,0.021474,0.341397,-0.193826,-0.016130,0.013823,0.019844,0.020233,-0.334803,-0.942071,0.001968,0.003062,0.003762,13.175951,-1.486524,-30.272766,,,,,,,
1504195897.665678,0.021283,0.341407,-0.193692,0.008047,-0.035381,0.013566,0.020053,-0.334813,-0.942071,0.005215,0.003270,0.006540,13.250765,-1.411191,-30.273132,,,,,,,
1504195897.675688,0.020705,0.341594,-0.193620,0.023781,-0.071731,0.009385,0.019507,-0.334989,-0.942020,0.005120,0.003050,0.008152,13.250765,-1.411191,-30.273132,,,,,,,
1504195897.685698,0.019938,0.341953,-0.193594,0.038653,-0.082501,0.005159,0.018782,-0.335328,-0.941914,0.004045,0.001984,0.005131,13.100542,-1.411572,-30.423492,,,,,,,
1504195897.695708,0.019175,0.342290,-0.193600,0.033449,-0.070731,-0.002342,0.018062,-0.335645,-0.941815,-0.000941,0.004011,0.008008,13.100542,-1.411572,-30.423492,,,,,,,
1504195897.705717,0.018614,0.342437,-0.193600,0.012317,-0.043921,-0.001357,0.017532,-0.335783,-0.941776,-0.002410,0.003798,0.004215,12.950808,-1.562085,-30.497742,,,,,,,
1504195897.715727,0.018432,0.342312,-0.193557,-0.014007,0.002108,0.001720,0.017361,-0.335666,-0.941821,-0.004483,0.002566,-0.000806,12.950808,-1.562085,-30.497742,,,,,,,
1504195897.725736,0.018657,0.341926,-0.193497,-0.042450,0.047091,0.000527,0.017575,-0.335302,-0.941947,-0.006894,0.001165,0.001029,13.101076,-1.487012,-30.197968,,,,,,,
1504195897.735746,0.019273,0.341328,-0.193435,-0.057091,0.084500,0.000439,0.018160,-0.334739,-0.942136,-0.008120,0.001822,-0.000567,13.101076,-1.487012,-30.197968,,,,,,,
1504195897.745755,0.020128,0.340629,-0.193342,-0.073001,0.099536,0.005725,0.018970,-0.334080,-0.942354,-0.007282,0.000172,0.002321,13.025957,-1.487195,-30.273132,,,,,,,
1504195897.755765,0.020788,0.339912,-0.193181,-0.073292,0.067559,0.013255,0.019597,-0.333404,-0.942580,-0.004247,-0.001374,0.004028,13.025957,-1.487195,-30.273132,,,,,,,
1504195897.765775,0.021034,0.339317,-0.192993,-0.055616,0.013065,0.018718,0.019833,-0.332843,-0.942774,0.001773,-0.001004,0.001642,13.250505,-1.261334,-30.199280,,,,,,,
1504195897.775785,0.020777,0.339082,-0.192824,-0.023029,-0.047935,0.019945,0.019592,-0.332621,-0.942857,0.008209,-0.001943,0.008424,13.250505,-1.261334,-30.199280,,,,,,,
1504195897.785794,0.020097,0.339103,-0.192745,0.006535,-0.092912,0.010464,0.018951,-0.332641,-0.942863,0.010941,0.002640,0.013237,13.251070,-1.486341,-30.197601,,,,,,,
1504195897.795805,0.019237,0.339332,-0.192851,0.032162,-0.102683,-0.009759,0.018139,-0.332857,-0.942803,0.009251,0.006227,0.011467,13.251070,-1.486341,-30.197601,,,,,,,
1504195897.805815,0.018501,0.339672,-0.193097,0.038754,-0.084605,-0.019389,0.017443,-0.333178,-0.942703,0.006742,0.007144,0.011932,13.026110,-1.412656,-30.048676,,,,,,,
1504195897.815825,0.017946,0.339927,-0.193309,0.021908,-0.055695,-0.018402,0.016918,-0.333418,-0.942627,0.001393,0.004225,0.008835,13.026110,-1.412656,-30.048676,,,,,,,
1504195897.825834,0.017603,0.339943,-0.193399,-0.007714,-0.018170,-0.008911,0.016595,-0.333433,-0.942628,-0.005135,-0.000154,0.001237,12.875505,-1.263028,-30.200195,,,,,,,
1504195897.835844,0.017530,0.339720,-0.193383,-0.034203,0.009738,-0.000464,0.016527,-0.333223,-0.942703,-0.006090,-0.004820,-0.003265,12.875505,-1.263028,-30.200195,,,,,,,
1504195897.845824,0.017626,0.339312,-0.193297,-0.054405,0.021615,0.005887,0.016620,-0.332838,-0.942837,-0.004352,-0.006746,-0.001727,12.725054,-1.038846,-30.127258,,,,,,,
1504195897.855833,0.017728,0.338816,-0.193196,-0.058754,0.012057,0.008032,0.016719,-0.332371,-0.943001,-0.000835,-0.006054,-0.000832,12.725054,-1.038846,-30.127258,,,,,,,
1504195897.865843,0.017753,0.338325,-0.193125,-0.051401,-0.003983,0.005937,0.016746,-0.331907,-0.943163,0.002114,-0.002489,0.001879,13.100725,-1.262311,-30.049622,,,,,,,
1504195897.875853,0.017692,0.337943,-0.193126,-0.035481,-0.017955,0.000650,0.016690,-0.331547,-0.943291,0.005221,0.000127,0.004372,13.100725,-1.262311,-30.049622,,,,,,,
1504195897.885863,0.017579,0.337726,-0.193217,-0.010955,-0.024536,-0.007838,0.016585,-0.331343,-0.943365,0.005692,0.003187,0.001546,13.025805,-1.337506,-30.124268,,,,,,,
1504195897.895871,0.017485,0.337689,-0.193362,0.011493,-0.020450,-0.011011,0.016497,-0.331307,-0.943379,0.004484,0.007028,0.002369,13.025805,-1.337506,-30.124268,,,,,,,
1504195897.905881,0.017271,0.337792,-0.193481,0.022081,-0.029063,-0.009911,0.016294,-0.331405,-0.943348,0.000827,0.006683,0.000324,12.650057,-1.263440,-30.500732,,,,,,,
1504195897.915891,0.016908,0.337946,-0.193483,0.024130,-0.032291,0.000774,0.015951,-0.331550,-0.943303,-0.002370,0.003944,-0.005535,12.650057,-1.263440,-30.500732,,,,,,,
1504195897.925901,0.016459,0.338124,-0.193386,0.022999,-0.034426,0.009316,0.015527,-0.331718,-0.943251,-0.003533,0.001091,-0.008745,12.799791,-1.337171,-30.799835,,,,,,,
1504195897.935910,0.016011,0.338316,-0.193262,0.016620,-0.032245,0.008236,0.015103,-0.331899,-0.943194,-0.003369,-0.001322,-0.003919,12.799791,-1.337171,-30.799835,,,,,,,
1504195897.945920,0.015655,0.338402,-0.193213,0.002829,-0.027864,-0.000334,0.014766,-0.331980,-0.943171,-0.002727,-0.002264,-0.003271,12.800615,-1.487760,-30.498688,,,,,,,
1504195897.955930,0.015421,0.338331,-0.193272,-0.010982,-0.024547,-0.006768,0.014546,-0.331914,-0.943198,0.000148,-0.001613,-0.002908,12.800615,-1.487760,-30.498688,,,,,,,
1504195897.965940,0.015317,0.338212,-0.193362,-0.018373,-0.015957,-0.007864,0.014449,-0.331801,-0.943239,0.002641,-0.003084,0.000352,12.876192,-1.488172,-30.123505,,,,,,,
1504195897.975950,0.015334,0.338145,-0.193434,-0.015080,-0.003197,-0.004680,0.014465,-0.331737,-0.943261,0.003113,-0.004826,0.004021,12.876192,-1.488172,-30.123505,,,,,,,
1504195897.985960,0.015381,0.338152,-0.193490,-0.008620,0.003144,-0.004680,0.014509,-0.331745,-0.943258,0.000276,-0.004071,0.007695,12.800203,-1.188214,-30.275940,,,,,,,
1504195897.995970,0.015450,0.338111,-0.193591,-0.007505,0.004208,-0.012151,0.014575,-0.331706,-0.943270,-0.000888,-0.000158,0.006701,12.800203,-1.188214,-30.275940,,,,,,,
1504195898.005980,0.015578,0.338031,-0.193786,-0.008489,0.008487,-0.021766,0.014696,-0.331630,-0.943295,-0.001162,0.000621,0.003323,12.725740,-1.488248,-30.423859,,,,,,,
1504195898.015990,0.015740,0.337931,-0.194035,-0.011626,0.013842,-0.026049,0.014850,-0.331536,-0.943326,-0.003451,-0.000266,0.001340,12.725740,-1.488248,-30.423859,,,,,,,
1504195898.025999,0.015811,0.337742,-0.194203,-0.027680,0.011828,-0.018598,0.014917,-0.331358,-0.943387,-0.007090,-0.001132,0.005567,12.725512,-1.263700,-30.200562,,,,,,,
1504195898.036009,0.015813,0.337471,-0.194310,-0.038398,0.007641,-0.014336,0.014920,-0.331101,-0.943477,-0.007459,-0.004470,0.003414,12.725512,-1.263700,-30.200562,,,,,,,
1504195898.046019,0.015848,0.337169,-0.194410,-0.037327,0.008691,-0.012199,0.014955,-0.330816,-0.943577,-0.004655,-0.005411,0.002033,12.650850,-1.488736,-30.349060,,,,,,,
1504195898.055998,0.015947,0.336941,-0.194513,-0.026605,0.013928,-0.013256,0.015050,-0.330602,-0.943650,-0.003789,-0.002421,0.008287,12.650850,-1.488736,-30.349060,,,,,,,
1504195898.066008,0.016158,0.336857,-0.194707,-0.008332,0.024438,-0.022847,0.015249,-0.330523,-0.943675,-0.005086,0.001299,0.012721,12.874910,-1.112729,-30.351318,,,,,,,
1504195898.076017,0.016444,0.336821,-0.194995,0.006637,0.024320,-0.030291,0.015519,-0.330488,-0.943682,-0.003312,0.007994,0.011493,12.874910,-1.112729,-30.351318,,,,,,,
1504195898.086026,0.016705,0.336809,-0.195314,0.004427,0.014747,-0.031345,0.015766,-0.330477,-0.943682,-0.001819,0.008150,0.009722,13.025621,-1.262494,-30.124817,,,,,,,
1504195898.096036,0.016956,0.336653,-0.195650,-0.012716,0.006366,-0.031361,0.016004,-0.330329,-0.943730,0.002414,0.005851,0.004628,13.025621,-1.262494,-30.124817,,,,,,,
1504195898.106046,0.017180,0.336370,-0.195982,-0.023395,0.006457,-0.030314,0.016216,-0.330063,-0.943820,0.003162,0.003860,-0.000364,13.324907,-1.110700,-30.350220,,,,,,,
1504195898.116056,0.017395,0.336102,-0.196267,-0.024480,0.007528,-0.024982,0.016421,-0.329810,-0.943905,0.001935,0.001105,0.001705,13.324907,-1.110700,-30.350220,,,,,,,
1504195898.126031,0.017618,0.335863,-0.196494,-0.022345,0.011770,-0.018582,0.016633,-0.329584,-0.943980,0.002471,0.002359,0.007334,13.100542,-1.411572,-30.423492,,,,,,,
1504195898.136041,0.017779,0.335672,-0.196659,-0.017128,0.001067,-0.012151,0.016786,-0.329403,-0.944040,0.002593,0.002789,0.008280,13.100542,-1.411572,-30.423492,,,,,,,
1504195898.146051,0.017824,0.335523,-0.196801,-0.014102,-0.018135,-0.007846,0.016829,-0.329263,-0.944088,0.007188,0.002282,0.006909,12.950060,-1.037839,-30.126709,,,,,,,
1504195898.156061,0.017689,0.335428,-0.196862,-0.007885,-0.035235,0.001797,0.016702,-0.329174,-0.944122,0.009863,0.000957,0.003219,12.950060,-1.037839,-30.126709,,,,,,,
1504195898.166070,0.017343,0.335440,-0.196834,0.001547,-0.051296,0.010377,0.016376,-0.329185,-0.944123,0.009152,0.000022,0.002107,13.250093,-1.186032,-30.349823,,,,,,,
1504195898.176080,0.016815,0.335498,-0.196742,0.007816,-0.065196,0.014678,0.015876,-0.329239,-0.944113,0.007943,0.001648,0.002417,13.250093,-1.186032,-30.349823,,,,,,,
1504195898.186090,0.016183,0.335627,-0.196623,0.017368,-0.070597,0.015769,0.015279,-0.329361,-0.944080,0.007227,0.002014,0.000980,13.024904,-1.112058,-30.350952,,,,,,,
1504195898.196100,0.015632,0.335853,-0.196518,0.027081,-0.057881,0.013626,0.014758,-0.329574,-0.944014,0.006330,0.001663,0.000594,13.024904,-1.112058,-30.350952,,,,,,,
1504195898.206110,0.015246,0.336184,-0.196420,0.031574,-0.031274,0.011451,0.014392,-0.329887,-0.943911,0.002392,-0.000023,0.004259,13.175020,-1.111524,-30.275574,,,,,,,
1504195898.216119,0.015097,0.336628,-0.196314,0.036127,0.001724,0.008200,0.014249,-0.330306,-0.943766,-0.002134,-0.002381,0.006083,13.175020,-1.111524,-30.275574,,,,,,,
1504195898.226129,0.015191,0.337143,-0.196210,0.038508,0.029406,0.004956,0.014335,-0.330792,-0.943595,-0.006767,-0.005420,0.008231,13.025393,-1.262204,-30.274811,,,,,,,
1504195898.236139,0.015430,0.337713,-0.196119,0.036516,0.044333,0.002797,0.014558,-0.331331,-0.943402,-0.009691,-0.008300,0.008313,13.025393,-1.262204,-30.274811,,,,,,,
1504195898.246149,0.015689,0.338245,-0.195993,0.026876,0.042264,0.010261,0.014799,-0.331832,-0.943222,-0.009520,-0.011308,0.009613,12.725512,-1.263700,-30.200562,,,,,,,
1504195898.256158,0.015798,0.338849,-0.195739,0.040586,0.028278,0.023122,0.014899,-0.332402,-0.943020,-0.007315,-0.012950,0.002789,12.725512,-1.263700,-30.200562,,,,,,,
1504195898.266168,0.015688,0.339610,-0.195423,0.045710,0.001586,0.026384,0.014791,-0.333120,-0.942769,-0.006231,-0.013423,0.010457,12.650591,-1.338880,-30.275177,,,,,,,
1504195898.276147,0.015329,0.340253,-0.195239,0.026275,-0.037669,0.013611,0.014450,-0.333726,-0.942559,-0.000885,-0.011428,0.019387,12.650591,-1.338880,-30.275177,,,,,,,
1504195898.286157,0.014813,0.340470,-0.195267,0.001623,-0.064082,-0.004533,0.013962,-0.333930,-0.942495,0.005249,-0.006753,0.003972,12.801409,-1.713071,-30.347015,,,,,,,
1504195898.296167,0.014322,0.340449,-0.195485,-0.019589,-0.060686,-0.022724,0.013499,-0.333911,-0.942508,0.005437,-0.007688,0.001209,12.801409,-1.713071,-30.347015,,,,,,,
1504195898.306177,0.014036,0.340269,-0.195813,-0.021487,-0.036151,-0.030244,0.013231,-0.333740,-0.942572,0.002836,-0.002777,0.000479,12.950579,-1.337537,-30.274445,,,,,,,
1504195898.316186,0.014031,0.340033,-0.196076,-0.015864,0.004286,-0.023899,0.013227,-0.333519,-0.942651,-0.002515,0.003120,0.000649,12.950579,-1.337537,-30.274445,,,,,,,
1504195898.326196,0.014244,0.339816,-0.196168,-0.009266,0.038308,-0.010068,0.013429,-0.333314,-0.942720,-0.007951,0.005921,-0.000227,12.800585,-1.338208,-30.274811,,,,,,,
1504195898.336206,0.014583,0.339585,-0.196094,-0.008161,0.054257,0.005921,0.013750,-0.333096,-0.942793,-0.009310,0.008419,-0.001635,12.800585,-1.338208,-30.274811,,,,,,,
1504195898.346216,0.014957,0.339346,-0.195917,-0.011447,0.050007,0.014465,0.014103,-0.332870,-0.942867,-0.005803,0.007568,-0.001850,12.800966,-1.488217,-30.273682,,,,,,,
1504195898.356226,0.015325,0.339100,-0.195784,-0.015799,0.038325,0.011276,0.014452,-0.332639,-0.942944,-0.000169,0.004865,-0.003910,12.800966,-1.488217,-30.273682,,,,,,,
1504195898.366235,0.015698,0.338781,-0.195823,-0.019061,0.022390,-0.003649,0.014805,-0.332338,-0.943044,0.005825,0.006227,-0.004725,12.875277,-1.262723,-30.350189,,,,,,,
1504195898.376245,0.016075,0.338496,-0.195998,-0.011622,0.013825,-0.013233,0.015162,-0.332069,-0.943133,0.010473,0.006569,-0.004804,12.875277,-1.262723,-30.350189,,,,,,,
1504195898.386255,0.016397,0.338339,-0.196206,0.000054,0.007346,-0.013206,0.015467,-0.331921,-0.943181,0.010168,0.006222,-0.004268,12.725740,-1.488248,-30.423859,,,,,,,
1504195898.396265,0.016600,0.338258,-0.196341,0.005238,-0.004417,-0.003575,0.015659,-0.331845,-0.943204,0.010006,0.006909,-0.002139,12.725740,-1.488248,-30.423859,,,,,,,
1504195898.406274,0.016549,0.338190,-0.196346,0.006065,-0.026781,0.009263,0.015611,-0.331780,-0.943228,0.010466,0.006066,-0.005304,12.725740,-1.264005,-30.050537,,,,,,,
1504195898.416284,0.016242,0.338098,-0.196159,0.001586,-0.041671,0.026355,0.015322,-0.331693,-0.943263,0.009046,0.005170,-0.006459,12.725740,-1.264005,-30.050537,,,,,,,
1504195898.426294,0.015926,0.338061,-0.195912,0.001680,-0.028878,0.027397,0.015024,-0.331659,-0.943280,0.007818,-0.000372,-0.009021,12.725328,-1.188703,-30.201141,,,,,,,
1504195898.436304,0.015896,0.338023,-0.195715,0.011603,0.006219,0.017743,0.014995,-0.331622,-0.943293,0.004093,0.004535,-0.009969,12.725328,-1.188703,-30.201141,,,,,,,
1504195898.446313,0.016110,0.338020,-0.195622,0.015094,0.034973,0.003823,0.015197,-0.331619,-0.943291,-0.002655,0.006973,-0.005470,12.800249,-1.113507,-30.126495,,,,,,,
1504195898.456323,0.016485,0.338050,-0.195674,0.020570,0.044529,-0.011127,0.015551,-0.331648,-0.943275,-0.005008,0.006407,-0.006951,12.800249,-1.113507,-30.126495,,,,,,,
1504195898.466333,0.016835,0.338179,-0.195798,0.031194,0.038045,-0.014297,0.015881,-0.331770,-0.943227,-0.005627,0.005888,-0.010982,12.799303,-0.738507,-30.129303,,,,,,,
1504195898.476343,0.017007,0.338502,-0.195866,0.038407,0.012398,-0.004632,0.016041,-0.332075,-0.943117,-0.002812,0.001005,-0.004988,12.799303,-0.738507,-30.129303,,,,,,,
1504195898.486322,0.016911,0.338971,-0.195840,0.042453,-0.011087,0.002889,0.015948,-0.332517,-0.942962,-0.001391,-0.002780,0.000076,12.425966,-1.489896,-30.274597,,,,,,,
1504195898.496332,0.016775,0.339559,-0.195828,0.047831,-0.007935,0.000759,0.015816,-0.333072,-0.942769,-0.001869,-0.006299,0.001393,12.425966,-1.489896,-30.274597,,,,,,,
1504195898.506341,0.016772,0.340185,-0.195860,0.045853,0.007003,-0.004606,0.015810,-0.333662,-0.942560,-0.003298,-0.005343,0.009226,13.025957,-1.487195,-30.273132,,,,,,,
1504195898.516351,0.017026,0.340532,-0.195961,0.028975,0.028458,-0.008942,0.016047,-0.333988,-0.942441,-0.005656,-0.003857,0.012829,13.025957,-1.487195,-30.273132,,,,,,,
1504195898.526361,0.017302,0.340824,-0.196035,0.010920,0.037127,-0.010054,0.016306,-0.334264,-0.942338,-0.005854,-0.004664,0.010194,12.726000,-1.413846,-30.124451,,,,,,,
1504195898.536371,0.017677,0.341000,-0.196086,0.001338,0.042525,-0.003674,0.016658,-0.334430,-0.942273,-0.003246,-0.004682,0.010496,12.726000,-1.413846,-30.124451,,,,,,,
1504195898.546381,0.018008,0.341128,-0.196061,-0.007331,0.029800,0.004873,0.016969,-0.334550,-0.942225,-0.000627,-0.005828,0.013453,12.725771,-1.413556,-30.274445,,,,,,,
1504195898.556390,0.018133,0.341193,-0.196049,-0.010682,0.006391,-0.000428,0.017087,-0.334612,-0.942201,0.000033,-0.005247,0.013322,12.725771,-1.413556,-30.274445,,,,,,,
1504195898.566400,0.018210,0.341153,-0.196186,-0.010693,-0.004247,-0.014287,0.017159,-0.334574,-0.942213,0.003104,-0.001898,0.008879,12.800997,-1.413510,-30.124237,,,,,,,
1504195898.576410,0.018313,0.341102,-0.196450,-0.009587,-0.006371,-0.024957,0.017257,-0.334526,-0.942229,0.004304,0.000725,0.011290,12.800997,-1.413510,-30.124237,,,,,,,
1504195898.586420,0.018392,0.341014,-0.196721,-0.021296,-0.003077,-0.023917,0.017332,-0.334443,-0.942257,0.002046,-0.000548,0.014904,12.950502,-1.262692,-30.200012,,,,,,,
1504195898.596429,0.018454,0.340828,-0.196894,-0.035096,0.008750,-0.017556,0.017391,-0.334268,-0.942318,-0.002346,-0.003577,0.011318,12.950502,-1.262692,-30.200012,,,,,,,
1504195898.606439,0.018632,0.340541,-0.197010,-0.039242,0.025826,-0.013322,0.017561,-0.333997,-0.942411,-0.003920,-0.003451,0.009107,12.875628,-1.263181,-30.125183,,,,,,,
1504195898.616449,0.018918,0.340196,-0.197089,-0.031727,0.034280,-0.009052,0.017833,-0.333672,-0.942521,-0.004680,0.001458,0.005280,12.875628,-1.263181,-30.125183,,,,,,,
1504195898.626459,0.019207,0.339862,-0.197133,-0.019004,0.027775,-0.004748,0.018107,-0.333357,-0.942627,-0.002406,0.006925,0.000900,12.801744,-1.713513,-30.122009,,,,,,,
1504195898.636468,0.019306,0.339586,-0.197131,-0.012861,0.001077,0.002781,0.018202,-0.333097,-0.942717,0.001070,0.006269,-0.001833,12.801744,-1.713513,-30.122009,,,,,,,
1504195898.646478,0.019144,0.339441,-0.197046,-0.001370,-0.023532,0.011382,0.018051,-0.332960,-0.942768,0.003525,0.003279,-0.007412,12.800844,-1.488065,-30.348694,,,,,,,
1504195898.656488,0.018788,0.339446,-0.196898,0.012325,-0.040696,0.017838,0.017715,-0.332964,-0.942773,0.004944,0.002703,-0.008628,12.800844,-1.488065,-30.348694,,,,,,,
1504195898.666498,0.018343,0.339607,-0.196687,0.020842,-0.040767,0.021054,0.017294,-0.333116,-0.942727,0.002817,0.000353,-0.004523,12.800768,-1.413205,-30.274231,,,,,,,
1504195898.676507,0.017979,0.339832,-0.196480,0.025233,-0.025884,0.019968,0.016950,-0.333329,-0.942658,0.000490,0.000382,-0.002914,12.800768,-1.413205,-30.274231,,,,,,,
1504195898.686517,0.017787,0.340087,-0.196253,0.022208,-0.003485,0.020992,0.016767,-0.333569,-0.942577,-0.002165,-0.000858,0.000758,12.801485,-1.563657,-30.048126,,,,,,,
1504195898.696497,0.017641,0.340310,-0.195964,0.005192,0.005170,0.025219,0.016628,-0.333779,-0.942505,-0.005383,-0.004737,0.005890,12.801485,-1.563657,-30.048126,,,,,,,
1504195898.706506,0.017594,0.340407,-0.195756,-0.013829,0.018122,0.011291,0.016584,-0.333870,-0.942473,-0.006635,-0.009391,0.005339,12.801180,-1.488507,-30.123688,,,,,,,
1504195898.716516,0.017835,0.340384,-0.195729,-0.019899,0.046954,-0.006913,0.016811,-0.333849,-0.942477,-0.008388,-0.010084,0.001757,12.801180,-1.488507,-30.123688,,,,,,,
1504195898.726526,0.018311,0.340318,-0.195788,-0.017593,0.065046,-0.011206,0.017260,-0.333787,-0.942490,-0.009615,-0.006255,0.000596,13.099977,-1.186566,-30.425201,,,,,,,
1504195898.736536,0.018851,0.340323,-0.195786,-0.012237,0.071377,-0.003731,0.017769,-0.333792,-0.942479,-0.010384,-0.006922,0.002996,13.099977,-1.186566,-30.425201,,,,,,,
1504195898.746545,0.019378,0.340368,-0.195694,-0.005889,0.069176,0.004827,0.018265,-0.333834,-0.942455,-0.009598,-0.007001,-0.001576,12.875765,-1.412869,-30.274048,,,,,,,
1504195898.756555,0.019793,0.340540,-0.195552,0.006754,0.052009,0.011287,0.018656,-0.333996,-0.942390,-0.006784,-0.008304,-0.000253,12.875765,-1.412869,-30.274048,,,,,,,
1504195898.766565,0.020068,0.340962,-0.195417,0.029021,0.032642,0.010294,0.018911,-0.334394,-0.942244,-0.004309,-0.010486,0.001906,13.100359,-1.336560,-30.424072,,,,,,,
1504195898.776575,0.020128,0.341546,-0.195337,0.050228,0.011157,0.003967,0.018964,-0.334944,-0.942047,-0.005155,-0.005968,0.004059,13.100359,-1.336560,-30.424072,,,,,,,
1504195898.786584,0.020029,0.342331,-0.195363,0.070366,-0.012445,-0.005562,0.018865,-0.335684,-0.941786,-0.002996,-0.003748,0.008909,12.950624,-1.262830,-30.125000,,,,,,,
1504195898.796594,0.019701,0.343295,-0.195554,0.077698,-0.042327,-0.023641,0.018550,-0.336592,-0.941468,-0.003185,-0.005892,0.014222,12.950624,-1.262830,-30.125000,,,,,,,
1504195898.806604,0.019300,0.344231,-0.195997,0.063822,-0.058175,-0.044985,0.018167,-0.337473,-0.941160,-0.000513,-0.008841,0.014646,13.251070,-1.486341,-30.197601,,,,,,,
1504195898.816614,0.018898,0.344915,-0.196577,0.038224,-0.064346,-0.053559,0.017783,-0.338117,-0.940936,0.002267,-0.010012,0.010913,13.251070,-1.486341,-30.197601,,,,,,,
1504195898.826623,0.018486,0.345331,-0.197146,0.008506,-0.048119,-0.055772,0.017394,-0.338508,-0.940803,-0.003249,-0.012597,0.007652,12.725969,-1.488553,-30.273865,,,,,,,
1504195898.836633,0.018352,0.345484,-0.197735,-0.018815,-0.003140,-0.064432,0.017267,-0.338652,-0.940753,-0.010202,-0.015153,0.007114,12.725969,-1.488553,-30.273865,,,,,,,
1504195898.846643,0.018725,0.345411,-0.198352,-0.034318,0.055584,-0.067757,0.017618,-0.338584,-0.940771,-0.015878,-0.012185,0.008444,12.575212,-1.189221,-30.276489,,,,,,,
1504195898.856653,0.019354,0.345233,-0.198871,-0.035201,0.083268,-0.058189,0.018211,-0.338416,-0.940820,-0.020805,-0.007272,0.011087,12.575212,-1.189221,-30.276489,,,,,,,
1504195898.866663,0.019978,0.345075,-0.199212,-0.023548,0.083133,-0.040011,0.018799,-0.338267,-0.940862,-0.021301,-0.003392,0.012243,12.800539,-1.412915,-30.424225,,,,,,,
1504195898.876672,0.020424,0.345107,-0.199388,-0.005671,0.059508,-0.023918,0.019218,-0.338297,-0.940843,-0.018120,-0.003011,0.013917,12.800539,-1.412915,-30.424225,,,,,,,
1504195898.886682,0.020490,0.345256,-0.199512,0.011010,0.013531,-0.018463,0.019279,-0.338437,-0.940791,-0.014748,0.000837,0.015697,12.950731,-1.487241,-30.423309,,,,,,,
1504195898.896692,0.020235,0.345562,-0.199670,0.028843,-0.027114,-0.021558,0.019037,-0.338726,-0.940692,-0.008402,0.000423,0.011753,12.950731,-1.487241,-30.423309,,,,,,,
1504195898.906671,0.019825,0.346006,-0.199932,0.042703,-0.034686,-0.031122,0.018649,-0.339143,-0.940550,-0.008609,0.001344,0.009505,13.026262,-1.562345,-30.197571,,,,,,,
1504195898.916681,0.019481,0.346476,-0.200230,0.047066,-0.024073,-0.033263,0.018322,-0.339585,-0.940397,-0.009289,0.004212,0.009397,13.026262,-1.562345,-30.197571,,,,,,,
1504195898.926691,0.019247,0.346887,-0.200518,0.040817,-0.004854,-0.033299,0.018099,-0.339972,-0.940261,-0.013521,0.004157,0.007232,13.100725,-1.262311,-30.049622,,,,,,,
1504195898.936700,0.019277,0.347161,-0.200734,0.023993,0.029364,-0.028043,0.018126,-0.340230,-0.940168,-0.015715,0.002156,0.003537,13.100725,-1.262311,-30.049622,,,,,,,
1504195898.946710,0.019535,0.347296,-0.200910,0.003880,0.050822,-0.024904,0.018368,-0.340357,-0.940117,-0.016567,-0.001547,0.004906,12.801378,-1.563519,-30.123138,,,,,,,
1504195898.956720,0.019854,0.347302,-0.201045,-0.012200,0.044543,-0.018510,0.018668,-0.340362,-0.940109,-0.012564,-0.002762,0.008850,12.801378,-1.563519,-30.123138,,,,,,,
1504195898.966730,0.020050,0.347183,-0.201105,-0.015630,0.022176,-0.007799,0.018853,-0.340251,-0.940146,-0.007042,-0.000509,0.007162,12.875277,-1.262723,-30.350189,,,,,,,
1504195898.976739,0.020069,0.347221,-0.201084,0.007661,0.005985,0.002945,0.018870,-0.340286,-0.940133,-0.003840,-0.000107,0.004586,12.875277,-1.262723,-30.350189,,,,,,,
1504195898.986749,0.019907,0.347580,-0.200978,0.044805,-0.013513,0.011585,0.018715,-0.340623,-0.940014,-0.002098,0.003389,0.008068,12.801455,-1.638364,-30.197571,,,,,,,
1504195898.996759,0.019539,0.348277,-0.200810,0.075564,-0.032954,0.017010,0.018365,-0.341279,-0.939783,-0.001946,0.004563,0.010797,12.801455,-1.638364,-30.197571,,,,,,,
1504195899.006769,0.019008,0.349141,-0.200667,0.083960,-0.053266,0.012791,0.017860,-0.342091,-0.939497,0.000206,0.001652,0.007200,13.100954,-1.486859,-30.272949,,,,,,,
1504195899.016778,0.018370,0.350014,-0.200567,0.082804,-0.066039,0.010675,0.017255,-0.342911,-0.939209,0.002719,0.000046,0.002915,13.100954,-1.486859,-30.272949,,,,,,,
1504195899.026788,0.017709,0.350704,-0.200555,0.062570,-0.067992,-0.000031,0.016630,-0.343559,-0.938984,0.001101,0.000404,0.000873,13.100954,-1.486859,-30.272949,,,,,,,
1504195899.036798,0.017040,0.351162,-0.200606,0.035897,-0.070964,-0.004342,0.016000,-0.343989,-0.938837,0.001792,-0.000799,0.002344,13.100954,-1.486859,-30.272949,,,,,,,
1504195899.046808,0.016444,0.351476,-0.200684,0.014645,-0.062260,-0.006531,0.015438,-0.344284,-0.938739,0.002231,-0.007050,0.000171,13.176378,-1.561826,-30.122192,,,,,,,
1504195899.056818,0.015971,0.351674,-0.200727,0.002051,-0.036586,-0.005531,0.014993,-0.344470,-0.938678,-0.002160,-0.009259,0.000613,13.176378,-1.561826,-30.122192,,,,,,,
1504195899.066827,0.015674,0.351894,-0.200669,0.004330,-0.013179,0.005108,0.014713,-0.344677,-0.938606,-0.005756,-0.009617,0.003609,12.875765,-1.412869,-30.274048,,,,,,,
1504195899.076837,0.015489,0.352189,-0.200406,0.008702,0.010200,0.024291,0.014538,-0.344953,-0.938507,-0.008694,-0.011401,0.004822,12.875765,-1.412869,-30.274048,,,,,,,
1504195899.086847,0.015433,0.352556,-0.199983,0.014201,0.035706,0.034935,0.014483,-0.345298,-0.938381,-0.011874,-0.012735,0.002880,12.801302,-1.712918,-30.421997,,,,,,,
1504195899.096857,0.015607,0.352963,-0.199548,0.015424,0.052736,0.033844,0.014644,-0.345680,-0.938238,-0.010478,-0.012856,0.004324,12.801302,-1.712918,-30.421997,,,,,,,
1504195899.106866,0.015933,0.353276,-0.199170,0.004850,0.060278,0.029546,0.014949,-0.345973,-0.938125,-0.008662,-0.012425,0.004104,12.801867,-1.713666,-30.046997,,,,,,,
1504195899.116846,0.016299,0.353491,-0.198830,-0.005797,0.059296,0.026329,0.015291,-0.346175,-0.938045,-0.007829,-0.012849,0.003918,12.801867,-1.713666,-30.046997,,,,,,,
1504195899.126855,0.016631,0.353659,-0.198534,-0.016486,0.051922,0.022056,0.015601,-0.346332,-0.937982,-0.007681,-0.015316,0.008218,13.026674,-1.637647,-30.046997,,,,,,,
1504195899.136865,0.016821,0.353812,-0.198296,-0.017613,0.038077,0.015676,0.015778,-0.346476,-0.937926,-0.008302,-0.015859,0.010741,13.026674,-1.637647,-30.046997,,,,,,,
1504195899.146875,0.016919,0.353963,-0.198159,-0.018664,0.029564,0.002884,0.015869,-0.346617,-0.937872,-0.010178,-0.015458,0.013251,12.651644,-1.714032,-30.197388,,,,,,,
1504195899.156885,0.016991,0.354107,-0.198147,-0.025055,0.022157,-0.006718,0.015936,-0.346753,-0.937821,-0.009879,-0.016834,0.016618,12.651644,-1.714032,-30.197388,,,,,,,
1504195899.166894,0.017073,0.354205,-0.198215,-0.032493,0.019019,-0.013128,0.016013,-0.346845,-0.937786,-0.009055,-0.018618,0.015224,12.801638,-1.713361,-30.197021,,,,,,,
1504195899.176904,0.017251,0.354197,-0.198351,-0.044096,0.028703,-0.019569,0.016179,-0.346837,-0.937786,-0.007771,-0.019328,0.014553,12.801638,-1.713361,-30.197021,,,,,,,
1504195899.186914,0.017618,0.354071,-0.198536,-0.052491,0.042620,-0.020676,0.016524,-0.346720,-0.937823,-0.005553,-0.019446,0.012927,12.801409,-1.713071,-30.347015,,,,,,,
1504195899.196924,0.018209,0.353876,-0.198664,-0.057658,0.066093,-0.012189,0.017080,-0.346536,-0.937881,-0.003881,-0.019217,0.011444,12.801409,-1.713071,-30.347015,,,,,,,
1504195899.206934,0.018968,0.353662,-0.198707,-0.053267,0.083096,-0.005808,0.017793,-0.346335,-0.937942,-0.003984,-0.016870,0.009994,12.876863,-1.713330,-30.046814,,,,,,,
1504195899.216943,0.019714,0.353469,-0.198683,-0.047986,0.078778,0.001680,0.018494,-0.346155,-0.937995,-0.004731,-0.013754,0.014411,12.876863,-1.713330,-30.046814,,,,,,,
1504195899.226953,0.020242,0.353306,-0.198533,-0.046152,0.048909,0.017743,0.018990,-0.346001,-0.938042,-0.000192,-0.014457,0.013741,12.651491,-1.564343,-30.048492,,,,,,,
1504195899.236963,0.020377,0.353268,-0.198246,-0.036869,0.013654,0.029559,0.019118,-0.345966,-0.938052,0.000017,-0.017377,0.012363,12.651491,-1.564343,-30.048492,,,,,,,
1504195899.246973,0.020193,0.353401,-0.197893,-0.025358,-0.014152,0.034959,0.018944,-0.346090,-0.938010,0.001121,-0.019510,0.014228,12.876757,-1.713178,-30.121826,,,,,,,
1504195899.256982,0.019799,0.353640,-0.197503,-0.021238,-0.033370,0.039264,0.018573,-0.346315,-0.937935,0.002606,-0.020873,0.017219,12.876757,-1.713178,-30.121826,,,,,,,
1504195899.266992,0.019272,0.353867,-0.197064,-0.020219,-0.039777,0.043541,0.018077,-0.346528,-0.937865,0.001180,-0.019607,0.017028,12.951555,-1.413587,-29.748871,,,,,,,
1504195899.277002,0.018746,0.354116,-0.196550,-0.015861,-0.028099,0.048863,0.017582,-0.346762,-0.937788,-0.000889,-0.019556,0.012694,12.951555,-1.413587,-29.748871,,,,,,,
1504195899.287012,0.018361,0.354327,-0.195923,-0.016780,-0.005729,0.059495,0.017219,-0.346960,-0.937722,-0.003440,-0.017161,0.013253,12.725969,-1.488553,-30.273865,,,,,,,
1504195899.297021,0.018171,0.354452,-0.195209,-0.020866,0.018802,0.065851,0.017041,-0.347076,-0.937682,-0.004742,-0.014603,0.011794,12.725969,-1.488553,-30.273865,,,,,,,
1504195899.307031,0.018133,0.354471,-0.194376,-0.024993,0.041196,0.076481,0.017005,-0.347094,-0.937676,-0.006415,-0.012739,0.007195,12.726152,-1.563550,-30.273315,,,,,,,
1504195899.317041,0.018186,0.354401,-0.193405,-0.033484,0.052968,0.089259,0.017054,-0.347029,-0.937699,-0.007502,-0.011903,0.006913,12.726152,-1.563550,-30.273315,,,,,,,
1504195899.327020,0.018225,0.354268,-0.192316,-0.044177,0.054104,0.098849,0.017092,-0.346904,-0.937745,-0.007815,-0.012288,0.009278,12.726076,-1.488706,-30.198883,,,,,,,
1504195899.337030,0.018290,0.354098,-0.191201,-0.052699,0.054168,0.099903,0.017154,-0.346745,-0.937803,-0.005481,-0.016369,0.008283,12.726076,-1.488706,-30.198883,,,,,,,
1504195899.347040,0.018333,0.353870,-0.190103,-0.058094,0.043555,0.098844,0.017196,-0.346531,-0.937881,-0.002639,-0.016598,0.010543,12.801409,-1.488812,-29.973694,,,,,,,
1504195899.357049,0.018286,0.353643,-0.189085,-0.061360,0.028669,0.092457,0.017153,-0.346318,-0.937960,-0.000719,-0.017589,0.013598,12.801409,-1.488812,-29.973694,,,,,,,
1504195899.367059,0.018192,0.353512,-0.188098,-0.051817,0.018999,0.093552,0.017066,-0.346195,-0.938008,0.002298,-0.019101,0.014652,12.725283,-1.263394,-30.350555,,,,,,,
1504195899.377069,0.018084,0.353514,-0.187092,-0.040065,0.019966,0.096766,0.016965,-0.346196,-0.938009,0.002246,-0.018275,0.017980,12.725283,-1.263394,-30.350555,,,,,,,
1504195899.387079,0.017926,0.353599,-0.186005,-0.037987,0.015677,0.106377,0.016816,-0.346276,-0.937982,0.002120,-0.019538,0.022439,12.651186,-1.489194,-30.124054,,,,,,,
1504195899.397089,0.017632,0.353730,-0.184744,-0.025310,0.008096,0.124552,0.016540,-0.346399,-0.937941,0.003373,-0.019751,0.015319,12.651186,-1.489194,-30.124054,,,,,,,
1504195899.407098,0.017254,0.354102,-0.183277,0.001246,0.004697,0.143804,0.016183,-0.346748,-0.937819,0.004462,-0.018288,0.015745,12.576448,-1.639371,-30.198120,,,,,,,
1504195899.417108,0.016735,0.354703,-0.181728,0.012808,-0.015648,0.151321,0.015693,-0.347312,-0.937618,0.006921,-0.015984,0.031094,12.576448,-1.639371,-30.198120,,,,,,,
1504195899.427118,0.015945,0.355284,-0.180126,0.015662,-0.057228,0.158854,0.014948,-0.347857,-0.937428,0.013906,-0.012403,0.030049,12.651674,-1.639340,-30.047913,,,,,,,
1504195899.437128,0.014808,0.355836,-0.178536,0.012114,-0.101941,0.161039,0.013880,-0.348374,-0.937253,0.020880,-0.012526,0.027783,12.651674,-1.639340,-30.047913,,,,,,,
1504195899.447137,0.013431,0.356308,-0.176967,0.001210,-0.132736,0.163181,0.012587,-0.348817,-0.937106,0.027116,-0.013137,0.028873,12.651293,-1.489331,-30.049042,,,,,,,
1504195899.457147,0.012002,0.356600,-0.175409,-0.016943,-0.136827,0.164192,0.011247,-0.349091,-0.937021,0.031081,-0.014786,0.024363,12.651293,-1.489331,-30.049042,,,,,,,
1504195899.467157,0.010747,0.356728,-0.173854,-0.036940,-0.106801,0.161940,0.010070,-0.349211,-0.936990,0.029191,-0.018954,0.021158,12.351870,-1.715680,-30.048096,,,,,,,
1504195899.477167,0.009873,0.356726,-0.172286,-0.047158,-0.055548,0.158607,0.009251,-0.349209,-0.936999,0.022457,-0.021077,0.017856,12.351870,-1.715680,-30.048096,,,,,,,
1504195899.487176,0.009324,0.356703,-0.170637,-0.042533,-0.009760,0.164924,0.008737,-0.349186,-0.937013,0.014822,-0.018978,0.016770,12.426867,-1.715344,-30.047913,,,,,,,
1504195899.497186,0.009027,0.356806,-0.168780,-0.025235,0.028445,0.185158,0.008458,-0.349283,-0.936979,0.008632,-0.017020,0.019682,12.426867,-1.715344,-30.047913,,,,,,,
1504195899.507196,0.008812,0.357131,-0.166634,-0.007058,0.046389,0.210769,0.008256,-0.349588,-0.936867,0.006575,-0.016562,0.023736,12.351534,-1.715238,-30.273102,,,,,,,
1504195899.517206,0.008566,0.357659,-0.164256,0.012064,0.046216,0.232144,0.008024,-0.350083,-0.936684,0.006777,-0.016266,0.026345,12.351534,-1.715238,-30.273102,,,,,,,
1504195899.527216,0.008314,0.358326,-0.161800,0.015172,0.034474,0.237493,0.007786,-0.350707,-0.936453,0.013073,-0.018021,0.030950,12.350924,-1.564939,-30.424225,,,,,,,
1504195899.537195,0.008013,0.359011,-0.159458,-0.000958,0.009058,0.228949,0.007502,-0.351348,-0.936215,0.021077,-0.025422,0.031186,12.350924,-1.564939,-30.424225,,,,,,,
1504195899.547205,0.007657,0.359551,-0.157314,-0.024562,-0.019482,0.217183,0.007167,-0.351854,-0.936027,0.031835,-0.033934,0.023308,12.425844,-1.489743,-30.349609,,,,,,,
1504195899.557214,0.007282,0.359916,-0.155341,-0.047037,-0.039502,0.207530,0.006816,-0.352196,-0.935902,0.041158,-0.042396,0.014500,12.425844,-1.489743,-30.349609,,,,,,,
1504195899.567224,0.006789,0.360298,-0.153429,-0.043888,-0.054409,0.203249,0.006353,-0.352553,-0.935770,0.043269,-0.049089,0.008402,12.350618,-1.489789,-30.499786,,,,,,,
1504195899.577234,0.006225,0.360938,-0.151531,-0.016096,-0.054604,0.202188,0.005824,-0.353152,-0.935548,0.042577,-0.051038,0.007753,12.350618,-1.489789,-30.499786,,,,,,,
1504195899.587244,0.005650,0.361932,-0.149677,0.013869,-0.054811,0.193663,0.005284,-0.354082,-0.935200,0.039302,-0.051939,0.011341,12.126040,-1.566098,-30.349792,,,,,,,
1504195899.597253,0.005125,0.363131,-0.148063,0.028937,-0.060205,0.169111,0.004791,-0.355203,-0.934777,0.039841,-0.052573,0.012932,12.126040,-1.566098,-30.349792,,,,,,,
1504195899.607263,0.004744,0.364380,-0.146740,0.036557,-0.063404,0.143468,0.004433,-0.356370,-0.934334,0.044319,-0.053359,0.006218,12.125628,-1.490796,-30.500366,,,,,,,
1504195899.617273,0.004328,0.365655,-0.145662,0.032339,-0.076101,0.123161,0.004041,-0.357561,-0.933881,0.044314,-0.056760,0.002545,12.125628,-1.490796,-30.500366,,,,,,,
1504195899.627283,0.003049,0.365850,-0.144498,0.013135,-0.088709,0.102869,0.002847,-0.357743,-0.933816,0.043158,-0.064666,0.004937,12.351000,-1.639783,-30.498657,,,,,,,
1504195899.637292,0.001811,0.365792,-0.143601,-0.012359,-0.090603,0.077210,0.001691,-0.357689,-0.933839,0.040957,-0.070748,0.001253,12.351000,-1.639783,-30.498657,,,,,,,
1504195899.647302,0.000790,0.365457,-0.143008,-0.040910,-0.076485,0.048316,0.000738,-0.357376,-0.933960,0.039591,-0.072433,0.002289,12.201006,-1.640470,-30.499054,,,,,,,
1504195899.657312,0.000871,0.366088,-0.142989,-0.064927,-0.038925,0.017225,0.000813,-0.357966,-0.933734,0.036144,-0.071935,0.004169,12.201006,-1.640470,-30.499054,,,,,,,
1504195899.667322,0.001006,0.365369,-0.142994,-0.073851,0.032566,-0.004265,0.000940,-0.357294,-0.933991,0.031821,-0.073980,0.007020,12.201036,-1.565763,-30.349609,,,,,,,
1504195899.677331,0.001950,0.364624,-0.143125,-0.073198,0.108228,-0.014004,0.001822,-0.356598,-0.934256,0.028070,-0.072616,0.017645,12.201036,-1.565763,-30.349609,,,,,,,
1504195899.687341,0.003613,0.363981,-0.143274,-0.059856,0.176315,-0.013033,0.003376,-0.355997,-0.934481,0.028087,-0.074927,0.029009,12.201036,-1.565763,-30.349609,,,,,,,
1504195899.697351,0.006377,0.365274,-0.143583,-0.028605,0.210184,-0.002387,0.005957,-0.357205,-0.934007,0.031778,-0.078189,0.037385,12.201036,-1.565763,-30.349609,,,,,,,
1504195899.707361,0.008364,0.365217,-0.143499,0.002142,0.193934,0.010504,0.007812,-0.357152,-0.934014,0.040741,-0.081172,0.049187,12.275438,-1.415128,-30.500549,,,,,,,
1504195899.717371,0.009858,0.365434,-0.143285,0.028346,0.142557,0.022382,0.009207,-0.357355,-0.933923,0.055307,-0.082098,0.056726,12.275438,-1.415128,-30.500549,,,,,,,
1504195899.727380,0.010705,0.365866,-0.143008,0.045967,0.080602,0.026791,0.009996,-0.357758,-0.933761,0.067518,-0.082153,0.058913,12.350847,-1.714337,-30.723145,,,,,,,
1504195899.737390,0.012659,0.368404,-0.143327,0.060580,0.027273,0.027894,0.011809,-0.360127,-0.932828,0.073991,-0.078853,0.060743,12.350847,-1.714337,-30.723145,,,,,,,
1504195899.747369,0.012595,0.369135,-0.143060,0.076364,-0.001626,0.025837,0.011746,-0.360809,-0.932566,0.073154,-0.074326,0.064890,12.425066,-1.488706,-30.874634,,,,,,,
1504195899.757379,0.012412,0.369907,-0.142776,0.076288,-0.009087,0.029052,0.011572,-0.361529,-0.932289,0.069742,-0.074445,0.069801,12.425066,-1.488706,-30.874634,,,,,,,
1504195899.767389,0.012142,0.370567,-0.142427,0.061260,-0.016429,0.035444,0.011318,-0.362144,-0.932053,0.064900,-0.073677,0.072175,12.350176,-1.489194,-30.799805,,,,,,,
1504195899.777399,0.013276,0.372965,-0.142573,0.037866,-0.019368,0.036409,0.012363,-0.364379,-0.931169,0.061948,-0.071351,0.066606,12.350176,-1.489194,-30.799805,,,,,,,
1504195899.787408,0.013021,0.373157,-0.142271,0.013433,-0.012762,0.025681,0.012125,-0.364557,-0.931102,0.059927,-0.068198,0.055736,12.426073,-1.714307,-30.572937,,,,,,,
1504195899.797418,0.012940,0.373172,-0.142116,-0.002381,0.002301,0.011751,0.012049,-0.364571,-0.931098,0.056494,-0.059960,0.044745,12.426073,-1.714307,-30.572937,,,,,,,
1504195899.807428,0.013137,0.373118,-0.142081,-0.005333,0.026845,0.001029,0.012233,-0.364521,-0.931115,0.054921,-0.056027,0.031655,12.126497,-2.015195,-30.796417,,,,,,,
1504195899.817438,0.014719,0.374330,-0.142451,0.010891,0.050196,0.007361,0.013699,-0.365649,-0.930652,0.048145,-0.051877,0.017764,12.126497,-2.015195,-30.796417,,,,,,,
1504195899.827447,0.015230,0.374694,-0.142206,0.042867,0.059501,0.028748,0.014173,-0.365988,-0.930512,0.045260,-0.052851,0.009339,12.125292,-1.714597,-31.098694,,,,,,,
1504195899.837457,0.015625,0.375348,-0.141706,0.072585,0.056033,0.054424,0.014537,-0.366596,-0.930267,0.044134,-0.054791,0.007110,12.125292,-1.714597,-31.098694,,,,,,,
1504195899.847467,0.015915,0.376324,-0.141033,0.103471,0.055768,0.065152,0.014801,-0.367504,-0.929904,0.048355,-0.063129,0.001361,12.350618,-1.714047,-30.873138,,,,,,,
1504195899.857477,0.017271,0.378979,-0.140726,0.123817,0.055648,0.066212,0.016045,-0.369973,-0.928904,0.043358,-0.068336,0.006175,12.350618,-1.714047,-30.873138,,,,,,,
1504195899.867487,0.017547,0.380337,-0.140015,0.137638,0.050205,0.067313,0.016293,-0.371233,-0.928397,0.045033,-0.075712,0.007208,12.275698,-1.789227,-30.947784,,,,,,,
1504195899.877496,0.017734,0.381811,-0.139340,0.150380,0.040513,0.064150,0.016456,-0.372601,-0.927846,0.038277,-0.084766,0.013524,12.275698,-1.789227,-30.947784,,,,,,,
1504195899.887506,0.017885,0.383418,-0.138661,0.162096,0.039348,0.066307,0.016586,-0.374092,-0.927243,0.036545,-0.094642,0.019360,12.499987,-1.413510,-30.800018,,,,,,,
1504195899.897516,0.018870,0.387519,-0.138242,0.170757,0.042521,0.072715,0.017470,-0.377892,-0.925685,0.034425,-0.099815,0.029155,12.499987,-1.413510,-30.800018,,,,,,,
1504195899.907526,0.019019,0.389199,-0.137438,0.164366,0.047895,0.079099,0.017595,-0.379448,-0.925046,0.032911,-0.107338,0.038342,12.350664,-1.863599,-31.097015,,,,,,,
1504195899.917535,0.019248,0.390769,-0.136638,0.153790,0.057576,0.075862,0.017796,-0.380899,-0.924445,0.035107,-0.116766,0.037696,12.425737,-1.938107,-31.171265,,,,,,,
1504195899.927545,0.019712,0.392359,-0.135983,0.158305,0.077803,0.058755,0.018213,-0.382369,-0.923830,0.036688,-0.125077,0.039309,12.425737,-1.938107,-31.171265,,,,,,,
1504195899.937555,0.021492,0.397158,-0.135925,0.155549,0.099225,0.039502,0.019818,-0.386799,-0.921951,0.038059,-0.128094,0.046432,12.650133,-1.562543,-30.948547,,,,,,,
1504195899.947565,0.022463,0.398603,-0.135728,0.139706,0.104708,0.015982,0.020700,-0.388131,-0.921372,0.038641,-0.130591,0.051361,12.650133,-1.562543,-30.948547,,,,,,,
1504195899.957544,0.023434,0.399809,-0.135730,0.113026,0.093224,-0.001122,0.021583,-0.389243,-0.920882,0.040779,-0.130853,0.046096,12.500216,-1.862317,-31.396637,,,,,,,
1504195899.967554,0.024092,0.400663,-0.135868,0.075383,0.047726,-0.013916,0.022182,-0.390029,-0.920535,0.045063,-0.130403,0.041568,12.500216,-1.862317,-31.396637,,,,,,,
1504195899.977563,0.025443,0.404238,-0.136665,0.035560,-0.026449,-0.028823,0.023390,-0.393319,-0.919105,0.049333,-0.126228,0.037879,12.575624,-1.937284,-31.245911,,,,,,,
1504195899.987573,0.024690,0.404414,-0.137088,0.015721,-0.113651,-0.041512,0.022696,-0.393480,-0.919053,0.057153,-0.128187,0.025880,12.575624,-1.937284,-31.245911,,,,,,,
1504195899.997583,0.023188,0.404662,-0.137626,0.031173,-0.189425,-0.052026,0.021313,-0.393708,-0.918988,0.059451,-0.123549,0.016751,12.500170,-1.712766,-31.172760,,,,,,,
1504195900.007593,0.021084,0.405294,-0.138282,0.077688,-0.248407,-0.060380,0.019375,-0.394289,-0.918782,0.059193,-0.116621,0.010274,12.500170,-1.712766,-31.172760,,,,,,,
1504195900.017602,0.019987,0.408772,-0.139528,0.134265,-0.265853,-0.068831,0.018339,-0.397482,-0.917427,0.050447,-0.106836,-0.002175,12.348711,-1.487241,-31.774811,,,,,,,
1504195900.027612,0.017786,0.410385,-0.140405,0.168611,-0.246944,-0.079479,0.016308,-0.398962,-0.916822,0.037449,-0.097116,-0.011416,12.348711,-1.487241,-31.774811,,,,,,,
1504195900.037622,0.016039,0.412067,-0.141310,0.166875,-0.197911,-0.080636,0.014696,-0.400504,-0.916177,0.024993,-0.089410,-0.027213,12.499010,-1.561719,-31.698914,,,,,,,
1504195900.047632,0.014856,0.413449,-0.142257,0.128937,-0.142182,-0.086137,0.013604,-0.401771,-0.915639,0.015388,-0.086892,-0.048304,12.499010,-1.561719,-31.698914,,,,,,,
1504195900.057642,0.014499,0.415458,-0.143430,0.066618,-0.083022,-0.104477,0.013265,-0.403609,-0.914835,0.009165,-0.085603,-0.066900,12.573931,-1.486539,-31.624268,,,,,,,
1504195900.067651,0.014640,0.415722,-0.144719,0.015985,-0.021847,-0.122818,0.013393,-0.403851,-0.914727,0.011510,-0.086368,-0.084937,12.573931,-1.486539,-31.624268,,,,,,,
1504195900.077661,0.015410,0.415620,-0.146237,-0.014464,0.026378,-0.144304,0.014098,-0.403757,-0.914758,0.014818,-0.086539,-0.091498,12.424608,-1.936612,-31.921265,,,,,,,
1504195900.087671,0.016433,0.415409,-0.147918,-0.018605,0.034950,-0.156068,0.015034,-0.403564,-0.914828,0.022762,-0.086609,-0.091352,12.424608,-1.936612,-31.921265,,,,,,,
1504195900.097681,0.017279,0.415322,-0.149652,0.000370,0.004959,-0.158117,0.015809,-0.403485,-0.914850,0.034026,-0.086750,-0.095435,12.649233,-1.785596,-31.921814,,,,,,,
1504195900.107690,0.017674,0.415583,-0.151438,0.040543,-0.045449,-0.164363,0.016168,-0.403723,-0.914738,0.036963,-0.078012,-0.100688,12.649233,-1.785596,-31.921814,,,,,,,
1504195900.117700,0.017685,0.416323,-0.153431,0.089389,-0.088452,-0.186618,0.016174,-0.404400,-0.914439,0.034364,-0.060138,-0.108602,12.573473,-1.485929,-31.924255,,,,,,,
1504195900.127681,0.017585,0.417512,-0.155718,0.131007,-0.104750,-0.214269,0.016073,-0.405487,-0.913959,0.027628,-0.037033,-0.114666,12.573473,-1.485929,-31.924255,,,,,,,
1504195900.137691,0.017705,0.418923,-0.158255,0.147280,-0.082487,-0.232426,0.016173,-0.406777,-0.913384,0.013948,-0.008415,-0.121207,12.648516,-1.635144,-32.147949,,,,,,,
1504195900.147699,0.018243,0.420338,-0.160738,0.142263,-0.033444,-0.217578,0.016654,-0.408069,-0.912799,-0.002722,0.022510,-0.125958,12.648516,-1.635144,-32.147949,,,,,,,
1504195900.157709,0.019169,0.421588,-0.162881,0.124379,0.018884,-0.184612,0.017489,-0.409210,-0.912273,-0.024340,0.046295,-0.126454,12.798220,-1.559323,-32.223175,,,,,,,
1504195900.167688,0.020481,0.422804,-0.164583,0.127844,0.078484,-0.142015,0.018676,-0.410319,-0.911751,-0.044387,0.069011,-0.124336,12.798220,-1.559323,-32.223175,,,,,,,
1504195900.177698,0.020420,0.420881,-0.165235,0.148200,0.126162,-0.119599,0.018637,-0.408564,-0.912539,-0.060522,0.091227,-0.109159,12.871782,-1.033841,-32.301941,,,,,,,
1504195900.187708,0.022327,0.422509,-0.166603,0.170671,0.132373,-0.122774,0.020362,-0.410050,-0.911836,-0.068961,0.109574,-0.085799,12.871782,-1.033841,-32.301941,,,,,,,
1504195900.197718,0.024094,0.424247,-0.168212,0.176947,0.099317,-0.150457,0.021955,-0.411635,-0.911084,-0.068419,0.120649,-0.078326,13.098055,-1.408277,-32.073547,,,,,,,
1504195900.207727,0.025593,0.425923,-0.170262,0.169339,0.054670,-0.194155,0.023304,-0.413161,-0.910360,-0.068637,0.135467,-0.075831,13.098055,-1.408277,-32.073547,,,,,,,
1504195900.217737,0.026932,0.427418,-0.172816,0.152223,0.021823,-0.237890,0.024506,-0.414522,-0.909709,-0.067017,0.142626,-0.070454,13.171968,-1.107495,-32.300629,,,,,,,
1504195900.227747,0.028226,0.428829,-0.175600,0.146885,0.013355,-0.250693,0.025667,-0.415806,-0.909091,-0.069780,0.147587,-0.063992,13.171968,-1.107495,-32.300629,,,,,,,
1504195900.237757,0.029602,0.430174,-0.178351,0.140540,0.025122,-0.243253,0.026901,-0.417029,-0.908495,-0.081131,0.152076,-0.045424,13.022463,-1.258313,-32.224854,,,,,,,
1504195900.247767,0.031070,0.431489,-0.180958,0.140585,0.040024,-0.228336,0.028218,-0.418224,-0.907906,-0.092930,0.156352,-0.031029,13.022463,-1.258313,-32.224854,,,,,,,
1504195900.257776,0.032647,0.432932,-0.183438,0.155626,0.059071,-0.218737,0.029630,-0.419534,-0.907256,-0.100354,0.163782,-0.023820,13.471773,-1.031140,-32.300446,,,,,,,
1504195900.267787,0.034444,0.434539,-0.185941,0.169696,0.081337,-0.223021,0.031237,-0.420992,-0.906526,-0.104235,0.168154,-0.008528,13.471773,-1.031140,-32.300446,,,,,,,
1504195900.277797,0.036532,0.436076,-0.188530,0.158193,0.105949,-0.230556,0.033105,-0.422386,-0.905811,-0.102502,0.169701,0.005710,13.396959,-1.106473,-32.300079,,,,,,,
1504195900.287807,0.038883,0.437332,-0.191149,0.125322,0.130729,-0.231724,0.035215,-0.423524,-0.905200,-0.102811,0.165651,0.016162,13.396959,-1.106473,-32.300079,,,,,,,
1504195900.297816,0.041438,0.438069,-0.193692,0.068900,0.150368,-0.225452,0.037514,-0.424191,-0.904795,-0.099862,0.158338,0.025095,13.771547,-1.029492,-32.449738,,,,,,,
1504195900.307826,0.043997,0.438118,-0.196165,-0.005805,0.149915,-0.222379,0.039829,-0.424236,-0.904675,-0.092319,0.151424,0.038083,13.771547,-1.029492,-32.449738,,,,,,,
1504195900.317836,0.046267,0.437359,-0.198611,-0.087174,0.113291,-0.224590,0.041897,-0.423549,-0.904904,-0.079007,0.135005,0.050961,13.997042,-1.178632,-32.373047,,,,,,,
1504195900.327845,0.048081,0.435933,-0.200979,-0.143024,0.071121,-0.218208,0.043567,-0.422256,-0.905429,-0.063419,0.123550,0.054538,13.997042,-1.178632,-32.373047,,,,,,,
1504195900.337854,0.049496,0.434380,-0.203141,-0.143325,0.045529,-0.198950,0.044881,-0.420848,-0.906020,-0.050191,0.115916,0.059035,13.995684,-0.728330,-32.526428,,,,,,,
1504195900.347864,0.050778,0.433007,-0.205150,-0.122096,0.041076,-0.183962,0.046072,-0.419602,-0.906538,-0.049917,0.109040,0.082823,13.995684,-0.728330,-32.526428,,,,,,,
1504195900.357874,0.051917,0.431921,-0.206865,-0.095584,0.040825,-0.151893,0.047128,-0.418616,-0.906940,-0.046518,0.107383,0.094668,13.921206,-0.804120,-32.301025,,,,,,,
1504195900.367884,0.052805,0.431089,-0.208104,-0.072387,0.036321,-0.103812,0.047951,-0.417861,-0.907245,-0.045983,0.101943,0.095584,13.921206,-0.804120,-32.301025,,,,,,,
1504195900.377894,0.053471,0.430510,-0.208809,-0.048094,0.036070,-0.054669,0.048569,-0.417334,-0.907454,-0.046845,0.092643,0.095961,14.219927,-0.427320,-32.528107,,,,,,,
1504195900.387873,0.053858,0.430150,-0.209002,-0.032397,0.026303,-0.008726,0.048928,-0.417007,-0.907585,-0.043099,0.085602,0.103981,14.219927,-0.427320,-32.528107,,,,,,,
1504195900.397883,0.053848,0.429853,-0.208821,-0.029562,-0.001456,0.020147,0.048926,-0.416737,-0.907709,-0.042700,0.076283,0.110117,13.994173,-0.128324,-32.530914,,,,,,,
1504195900.407892,0.053502,0.429572,-0.208564,-0.029863,-0.031279,0.020221,0.048618,-0.416482,-0.907843,-0.040623,0.065179,0.110800,13.994173,-0.128324,-32.530914,,,,,,,
1504195900.417902,0.053116,0.429262,-0.208464,-0.030855,-0.034446,-0.000056,0.048274,-0.416200,-0.907991,-0.038371,0.055711,0.112458,14.143755,-0.052350,-32.681091,,,,,,,
1504195900.427912,0.052925,0.428875,-0.208666,-0.041300,-0.023676,-0.027845,0.048110,-0.415848,-0.908161,-0.040236,0.045487,0.117176,14.143755,-0.052350,-32.681091,,,,,,,
1504195900.437922,0.053094,0.428252,-0.209072,-0.067621,0.011721,-0.041830,0.048276,-0.415281,-0.908411,-0.041257,0.038740,0.115931,14.143038,0.098086,-32.907227,,,,,,,
1504195900.447932,0.053686,0.427311,-0.209479,-0.102500,0.053565,-0.040896,0.048835,-0.414425,-0.908772,-0.045173,0.035168,0.110753,14.143038,0.098086,-32.907227,,,,,,,
1504195900.457942,0.054617,0.425944,-0.209784,-0.144934,0.088007,-0.034626,0.049712,-0.413181,-0.909291,-0.050124,0.028263,0.107716,14.293840,-0.126538,-32.755188,,,,,,,
1504195900.467952,0.055832,0.424202,-0.210148,-0.180978,0.109629,-0.046468,0.050857,-0.411594,-0.909947,-0.054290,0.020221,0.103658,14.293840,-0.126538,-32.755188,,,,,,,
1504195900.477962,0.057148,0.422166,-0.210639,-0.204385,0.109835,-0.059318,0.052102,-0.409737,-0.910715,-0.049981,0.012917,0.101465,14.218416,0.172687,-32.532623,,,,,,,
1504195900.487970,0.058324,0.420080,-0.211205,-0.203459,0.089585,-0.063550,0.053223,-0.407834,-0.911504,-0.043061,0.004269,0.098073,14.218416,0.172687,-32.532623,,,,,,,
1504195900.497980,0.057440,0.419867,-0.210999,-0.188824,0.048914,-0.050514,0.052422,-0.407639,-0.911637,-0.042702,-0.004898,0.095552,14.142183,0.398242,-32.984497,,,,,,,
1504195900.507990,0.057590,0.418070,-0.211217,-0.173423,-0.009849,-0.023698,0.052601,-0.405998,-0.912359,-0.038197,-0.018548,0.092367,14.142183,0.398242,-32.984497,,,,,,,
1504195900.518000,0.057071,0.416458,-0.211181,-0.156878,-0.062222,-0.002229,0.052164,-0.404524,-0.913039,-0.037211,-0.034472,0.076704,14.142107,0.473102,-32.910065,,,,,,,
1504195900.528009,0.056168,0.414982,-0.211242,-0.144295,-0.101732,-0.021351,0.051374,-0.403173,-0.913680,-0.037122,-0.044840,0.063369,14.142107,0.473102,-32.910065,,,,,,,
1504195900.538019,0.053611,0.416110,-0.211081,-0.127071,-0.122119,-0.059579,0.049013,-0.404205,-0.913354,-0.036364,-0.048264,0.046624,14.441271,0.849292,-32.837158,,,,,,,
1504195900.548029,0.052830,0.414845,-0.212040,-0.120376,-0.114666,-0.106546,0.048326,-0.403048,-0.913902,-0.041536,-0.054609,0.028663,14.441271,0.849292,-32.837158,,,,,,,
1504195900.558039,0.052474,0.413530,-0.213476,-0.126333,-0.083673,-0.146105,0.048029,-0.401844,-0.914448,-0.052789,-0.060817,0.018360,14.065554,0.998065,-33.064178,,,,,,,
1504195900.568049,0.052620,0.412107,-0.215023,-0.135551,-0.035645,-0.146205,0.048193,-0.400541,-0.915011,-0.057043,-0.070696,0.004366,14.065554,0.998065,-33.064178,,,,,,,
1504195900.578058,0.050437,0.413306,-0.215175,-0.125694,0.005718,-0.105503,0.046171,-0.401639,-0.914634,-0.064039,-0.078937,-0.006463,14.214998,1.223712,-33.065491,,,,,,,
1504195900.588068,0.050937,0.412238,-0.215750,-0.094853,0.033103,-0.041454,0.046649,-0.400661,-0.915038,-0.074786,-0.091618,-0.010102,14.214998,1.223712,-33.065491,,,,,,,
1504195900.598047,0.051395,0.411596,-0.215648,-0.053397,0.052942,0.021560,0.047082,-0.400072,-0.915273,-0.076623,-0.102308,-0.010554,14.364199,1.449695,-33.216827,,,,,,,
1504195900.608057,0.051714,0.411547,-0.215064,0.008292,0.053459,0.061160,0.047374,-0.400027,-0.915278,-0.075237,-0.109326,-0.012594,14.364199,1.449695,-33.216827,,,,,,,
1504195900.618068,0.048812,0.415644,-0.213104,0.080781,0.031456,0.073291,0.044638,-0.403779,-0.913767,-0.072928,-0.107863,-0.013296,14.288485,1.599811,-33.443115,,,,,,,
1504195900.628078,0.048444,0.417067,-0.212469,0.159341,-0.025655,0.060719,0.044274,-0.405081,-0.913208,-0.067620,-0.105082,-0.011840,14.288485,1.599811,-33.443115,,,,,,,
1504195900.638087,0.047497,0.419316,-0.212147,0.244254,-0.098785,0.032175,0.043366,-0.407135,-0.912338,-0.059220,-0.106491,-0.017808,14.363970,1.450000,-33.366821,,,,,,,
1504195900.648097,0.046112,0.422447,-0.212222,0.334677,-0.152776,-0.000663,0.042043,-0.409993,-0.911119,-0.050085,-0.105372,-0.021544,14.363970,1.450000,-33.366821,,,,,,,
1504195900.658107,0.042919,0.429090,-0.211972,0.395582,-0.176736,-0.028139,0.039016,-0.416043,-0.908507,-0.041916,-0.100222,-0.022279,14.438784,1.525332,-33.367218,,,,,,,
1504195900.668117,0.041412,0.433105,-0.212574,0.399920,-0.174630,-0.038809,0.037578,-0.419691,-0.906889,-0.036906,-0.100756,-0.024889,14.438784,1.525332,-33.367218,,,,,,,
1504195900.678125,0.040086,0.436836,-0.213101,0.362762,-0.145562,-0.029318,0.036312,-0.423075,-0.905367,-0.033123,-0.105993,-0.038664,14.213976,1.449313,-33.367188,,,,,,,
1504195900.688135,0.039100,0.440037,-0.213425,0.306517,-0.097165,-0.012423,0.035367,-0.425973,-0.904044,-0.031170,-0.113699,-0.049630,14.213976,1.449313,-33.367188,,,,,,,
1504195900.698145,0.037384,0.445217,-0.212962,0.251551,-0.034964,0.009884,0.033732,-0.430654,-0.901887,-0.033229,-0.113917,-0.053893,14.213823,1.374759,-33.591644,,,,,,,
1504195900.708155,0.037340,0.447383,-0.212724,0.203844,0.019747,0.036390,0.033657,-0.432608,-0.900954,-0.030315,-0.109506,-0.050676,14.213823,1.374759,-33.591644,,,,,,,
1504195900.718165,0.037779,0.449178,-0.212218,0.170102,0.081810,0.055436,0.034023,-0.434225,-0.900162,-0.031261,-0.107493,-0.053665,14.288301,1.450549,-33.816986,,,,,,,
1504195900.728174,0.038820,0.450700,-0.211709,0.144976,0.138499,0.049955,0.034935,-0.435595,-0.899464,-0.031166,-0.098645,-0.055751,14.288301,1.450549,-33.816986,,,,,,,
1504195900.738184,0.039079,0.453803,-0.210725,0.128122,0.155657,0.052109,0.035114,-0.438387,-0.898100,-0.025883,-0.086851,-0.063020,14.363405,1.450732,-33.741821,,,,,,,
1504195900.748194,0.040155,0.455150,-0.210078,0.136333,0.125735,0.069254,0.036057,-0.439597,-0.897471,-0.019455,-0.076180,-0.073873,14.363405,1.450732,-33.741821,,,,,,,
1504195900.758204,0.040551,0.456871,-0.209132,0.181585,0.066722,0.100391,0.036382,-0.441142,-0.896699,-0.009786,-0.067769,-0.087523,14.588335,1.526599,-33.666809,,,,,,,
1504195900.768214,0.040225,0.459183,-0.207797,0.240728,0.015046,0.139011,0.036048,-0.443216,-0.895690,-0.001212,-0.060828,-0.090623,14.588335,1.526599,-33.666809,,,,,,,
1504195900.778224,0.039403,0.462288,-0.206046,0.284203,0.000797,0.173275,0.035258,-0.445997,-0.894340,0.002310,-0.051684,-0.092019,14.512697,1.601871,-33.967621,,,,,,,
1504195900.788234,0.038648,0.465291,-0.203998,0.291723,0.025214,0.202065,0.034531,-0.448683,-0.893024,0.003082,-0.035799,-0.101117,14.512697,1.601871,-33.967621,,,,,,,
1504195900.798244,0.038284,0.468020,-0.201606,0.252611,0.089441,0.231771,0.034159,-0.451120,-0.891809,0.009359,-0.020697,-0.118506,14.662874,1.527530,-33.966675,,,,,,,
1504195900.808223,0.038353,0.470137,-0.198730,0.181371,0.148589,0.277441,0.034183,-0.453009,-0.890850,0.016583,-0.011072,-0.129337,14.662874,1.527530,-33.966675,,,,,,,
1504195900.818233,0.038243,0.471363,-0.195163,0.087177,0.147172,0.335988,0.034064,-0.454101,-0.890299,0.026025,0.002731,-0.134390,14.437807,1.601382,-33.892792,,,,,,,
1504195900.828241,0.037608,0.471878,-0.191126,0.024840,0.108229,0.364768,0.033490,-0.454560,-0.890086,0.021640,0.009781,-0.151478,14.437807,1.601382,-33.892792,,,,,,,
1504195900.838251,0.036395,0.472170,-0.187270,0.019057,0.031588,0.331804,0.032405,-0.454820,-0.889993,0.018742,0.025209,-0.158453,14.662462,1.602832,-34.117249,,,,,,,
1504195900.848261,0.034612,0.472770,-0.184232,0.063508,-0.064597,0.249861,0.030809,-0.455354,-0.889777,0.014814,0.057680,-0.152764,14.662462,1.602832,-34.117249,,,,,,,
1504195900.858271,0.032277,0.473987,-0.182197,0.134610,-0.166325,0.163704,0.028714,-0.456438,-0.889292,0.014560,0.094621,-0.148229,14.962389,1.679034,-34.042053,,,,,,,
1504195900.868280,0.029307,0.475925,-0.181007,0.206710,-0.265948,0.094623,0.026047,-0.458161,-0.888487,0.011475,0.131547,-0.141511,14.962389,1.679034,-34.042053,,,,,,,
1504195900.878290,0.025907,0.471396,-0.180497,0.242277,-0.340779,0.044638,0.023079,-0.454131,-0.890636,0.009590,0.158995,-0.135334,14.662462,1.602832,-34.117249,,,,,,,
1504195900.888300,0.022218,0.473841,-0.180331,0.240127,-0.362041,0.013717,0.019769,-0.456308,-0.889603,0.013251,0.185525,-0.138596,14.662462,1.602832,-34.117249,,,,,,,
1504195900.898310,0.018944,0.476007,-0.180378,0.207518,-0.313804,-0.002436,0.016837,-0.458234,-0.888672,0.017663,0.204755,-0.138900,14.212328,1.526263,-34.342804,,,,,,,
1504195900.908320,0.016643,0.477780,-0.180413,0.167848,-0.200530,0.003700,0.014779,-0.459809,-0.887895,0.018211,0.224717,-0.126998,14.212328,1.526263,-34.342804,,,,,,,
1504195900.918329,0.015777,0.478922,-0.180263,0.092272,-0.035820,0.018222,0.014001,-0.460822,-0.887382,0.014640,0.223502,-0.106698,13.986040,1.900699,-34.571136,,,,,,,
1504195900.928339,0.016523,0.478990,-0.179835,-0.022810,0.134527,0.047610,0.014663,-0.460883,-0.887340,0.014451,0.219444,-0.085317,13.986040,1.900699,-34.571136,,,,,,,
1504195900.938349,0.018417,0.477955,-0.178902,-0.131906,0.262186,0.092026,0.016352,-0.459964,-0.887787,0.021780,0.219684,-0.076126,13.986940,1.675250,-34.344482,,,,,,,
1504195900.948359,0.020986,0.476032,-0.177518,-0.213660,0.334218,0.126982,0.018651,-0.458256,-0.888625,0.029048,0.197193,-0.055360,13.986940,1.675250,-34.344482,,,,,,,
1504195900.958369,0.023594,0.473476,-0.175899,-0.271385,0.328287,0.139701,0.020997,-0.455983,-0.889741,0.046020,0.185979,-0.028716,14.210924,2.126117,-34.272278,,,,,,,
1504195900.968379,0.025440,0.470513,-0.174216,-0.306303,0.232668,0.141944,0.022673,-0.453344,-0.891047,0.066103,0.172628,-0.007192,14.210924,2.126117,-34.272278,,,,,,,
1504195900.978389,0.025973,0.467413,-0.172520,-0.313817,0.094201,0.143243,0.023185,-0.450578,-0.892436,0.087793,0.158785,-0.000890,14.585283,2.203403,-34.571899,,,,,,,
1504195900.988399,0.029125,0.459289,-0.172676,-0.300226,-0.046441,0.134754,0.026103,-0.443311,-0.895988,0.088719,0.141888,0.004646,14.585283,2.203403,-34.571899,,,,,,,
1504195900.998407,0.027224,0.456513,-0.171142,-0.272152,-0.141506,0.129633,0.024433,-0.440821,-0.897262,0.086346,0.132685,0.007400,14.284639,2.501895,-34.499939,,,,,,,
1504195901.008417,0.024884,0.454214,-0.169558,-0.219042,-0.164332,0.140440,0.022358,-0.438756,-0.898328,0.073116,0.130482,0.003660,14.284639,2.501895,-34.499939,,,,,,,
1504195901.018396,0.022738,0.452601,-0.167719,-0.145214,-0.120215,0.169310,0.020447,-0.437306,-0.899080,0.044174,0.134419,0.006701,14.658922,2.654040,-34.725128,,,,,,,
1504195901.028406,0.022160,0.446929,-0.165896,-0.052123,-0.029364,0.209804,0.019982,-0.432198,-0.901557,0.019828,0.134454,0.014823,14.658922,2.654040,-34.725128,,,,,,,
1504195901.038416,0.021452,0.447207,-0.163177,0.046599,0.071005,0.257831,0.019341,-0.432449,-0.901451,0.000618,0.146103,0.020057,14.433443,2.803180,-34.801788,,,,,,,
1504195901.048426,0.021185,0.448374,-0.159885,0.128932,0.126749,0.311246,0.019089,-0.433501,-0.900951,-0.006486,0.147490,0.033382,14.433443,2.803180,-34.801788,,,,,,,
1504195901.058436,0.020924,0.450097,-0.156211,0.172569,0.130623,0.339067,0.018839,-0.435053,-0.900208,-0.001581,0.141138,0.042771,14.358217,3.027392,-34.578674,,,,,,,
1504195901.068445,0.020381,0.451971,-0.152529,0.180865,0.095399,0.330604,0.018333,-0.436740,-0.899401,0.012932,0.127841,0.045611,14.358217,3.027392,-34.578674,,,,,,,
1504195901.078455,0.019513,0.453808,-0.149192,0.175331,0.046467,0.292254,0.017537,-0.438391,-0.898613,0.031001,0.115775,0.045998,14.733171,2.954379,-34.727203,,,,,,,
1504195901.088465,0.020124,0.452895,-0.147195,0.156897,-0.007617,0.237793,0.018094,-0.437570,-0.899002,0.039951,0.100870,0.053497,14.733171,2.954379,-34.727203,,,,,,,
1504195901.098475,0.018639,0.454335,-0.145059,0.134272,-0.070242,0.181292,0.016747,-0.438865,-0.898397,0.045494,0.092811,0.060003,14.657763,3.029330,-34.877930,,,,,,,
1504195901.108485,0.016990,0.455432,-0.143507,0.099045,-0.105062,0.128989,0.015257,-0.439850,-0.897942,0.048586,0.085404,0.060738,14.657763,3.029330,-34.877930,,,,,,,
1504195901.118495,0.015522,0.456169,-0.142434,0.060948,-0.091918,0.087271,0.013934,-0.440512,-0.897639,0.042966,0.083258,0.056315,14.808397,2.730166,-34.950287,,,,,,,
1504195901.128504,0.016369,0.454105,-0.142464,0.015560,-0.033919,0.057123,0.014709,-0.438658,-0.898534,0.032623,0.084852,0.055104,14.808397,2.730166,-34.950287,,,,,,,
1504195901.138514,0.016485,0.453830,-0.141985,-0.043400,0.053964,0.039787,0.014815,-0.438411,-0.898652,0.019105,0.088664,0.054933,14.732836,2.954822,-34.952179,,,,,,,
1504195901.148523,0.017489,0.452959,-0.141540,-0.101385,0.139692,0.037401,0.015725,-0.437628,-0.899018,0.009651,0.090430,0.049287,14.732836,2.954822,-34.952179,,,,,,,
1504195901.158533,0.019143,0.451609,-0.141032,-0.143620,0.199706,0.044693,0.017223,-0.436414,-0.899581,0.005238,0.087049,0.043548,14.807390,3.180011,-34.878693,,,,,,,
1504195901.168543,0.021327,0.447599,-0.140637,-0.145852,0.205049,0.046782,0.019225,-0.432802,-0.901284,0.004274,0.084001,0.043435,14.807390,3.180011,-34.878693,,,,,,,
1504195901.178553,0.022756,0.446456,-0.140076,-0.103631,0.149288,0.049088,0.020524,-0.431772,-0.901749,0.011016,0.086252,0.045777,15.105989,3.556964,-35.180756,,,,,,,
1504195901.188562,0.023316,0.445959,-0.139505,-0.032885,0.057064,0.049374,0.021034,-0.431324,-0.901952,0.020729,0.085865,0.051137,15.105989,3.556964,-35.180756,,,,,,,
1504195901.198572,0.022992,0.446071,-0.139106,0.024063,-0.038224,0.030427,0.020740,-0.431425,-0.901911,0.031109,0.082349,0.053735,14.806856,3.255466,-35.104279,,,,,,,
1504195901.208582,0.023817,0.444583,-0.139829,0.062979,-0.115173,-0.001469,0.021500,-0.430082,-0.902534,0.036819,0.072919,0.047492,14.806856,3.255466,-35.104279,,,,,,,
1504195901.218592,0.022526,0.445417,-0.140044,0.091663,-0.143093,-0.021651,0.020327,-0.430834,-0.902202,0.038801,0.063204,0.035961,15.106066,3.482104,-35.255219,,,,,,,
1504195901.228571,0.021346,0.446384,-0.140307,0.098219,-0.121839,-0.018475,0.019253,-0.431706,-0.901809,0.033222,0.046101,0.036956,15.106066,3.482104,-35.255219,,,,,,,
1504195901.238581,0.020553,0.447336,-0.140370,0.093238,-0.064277,0.002763,0.018530,-0.432565,-0.901412,0.023432,0.030343,0.040984,14.880693,3.631091,-35.256897,,,,,,,
1504195901.248591,0.021092,0.448496,-0.140429,0.083041,0.011465,0.032480,0.019004,-0.433611,-0.900900,0.014717,0.014131,0.044241,14.880693,3.631091,-35.256897,,,,,,,
1504195901.258600,0.021407,0.449347,-0.139798,0.083347,0.071101,0.066532,0.019281,-0.434378,-0.900524,0.010474,0.002676,0.050061,14.880953,3.481250,-35.330750,,,,,,,
1504195901.268610,0.021921,0.450210,-0.138902,0.084492,0.093448,0.086775,0.019735,-0.435155,-0.900139,0.009486,-0.003779,0.060128,14.880953,3.481250,-35.330750,,,,,,,
1504195901.278620,0.022285,0.451095,-0.137934,0.086441,0.071053,0.087885,0.020054,-0.435952,-0.899747,0.018352,-0.012611,0.063687,14.806337,3.330905,-35.329803,,,,,,,
1504195901.288630,0.023652,0.453913,-0.137743,0.091563,0.019950,0.067682,0.021255,-0.438485,-0.898487,0.027741,-0.019370,0.061634,14.806337,3.330905,-35.329803,,,,,,,
1504195901.298639,0.023284,0.454886,-0.137276,0.097735,-0.028021,0.036823,0.020914,-0.439359,-0.898068,0.039617,-0.032992,0.055966,14.730577,3.630572,-35.332245,,,,,,,
1504195901.308649,0.022499,0.455961,-0.137124,0.110208,-0.086703,0.009195,0.020198,-0.440325,-0.897611,0.049549,-0.049787,0.054533,14.730577,3.630572,-35.332245,,,,,,,
1504195901.318659,0.021284,0.457204,-0.137235,0.129117,-0.136919,-0.012031,0.019097,-0.441441,-0.897087,0.057487,-0.064053,0.048103,15.105654,3.557406,-35.405762,,,,,,,
1504195901.328669,0.022440,0.461920,-0.138684,0.151510,-0.166803,-0.024796,0.020087,-0.445668,-0.894973,0.058969,-0.069194,0.040420,15.105654,3.557406,-35.405762,,,,,,,
1504195901.338678,0.020842,0.463531,-0.139060,0.163200,-0.176483,-0.031163,0.018641,-0.447109,-0.894285,0.058996,-0.075779,0.042967,15.105654,3.333148,-35.779114,,,,,,,
1504195901.348688,0.019480,0.465222,-0.139501,0.172009,-0.145647,-0.036539,0.017409,-0.448621,-0.893552,0.052232,-0.075961,0.035047,15.105654,3.333148,-35.779114,,,,,,,
1504195901.358698,0.018591,0.466924,-0.139911,0.168129,-0.094471,-0.032366,0.016600,-0.450142,-0.892803,0.038331,-0.075783,0.027980,15.105150,3.483310,-35.855255,,,,,,,
1504195901.368708,0.019134,0.471509,-0.140793,0.147182,-0.065462,-0.033514,0.017045,-0.454232,-0.890721,0.025252,-0.077568,0.017643,15.105150,3.483310,-35.855255,,,,,,,
1504195901.378717,0.018772,0.472735,-0.141268,0.114225,-0.056655,-0.043194,0.016712,-0.455323,-0.890169,0.018444,-0.080794,0.002199,14.879641,3.557742,-36.081329,,,,,,,
1504195901.388727,0.018490,0.473665,-0.141936,0.086562,-0.059603,-0.063517,0.016453,-0.456151,-0.889750,0.020641,-0.080195,-0.017324,14.879641,3.557742,-36.081329,,,,,,,
1504195901.398737,0.018247,0.474297,-0.142916,0.058850,-0.075327,-0.094492,0.016232,-0.456713,-0.889466,0.021091,-0.072858,-0.025726,15.253847,3.784732,-36.232117,,,,,,,
1504195901.408747,0.018820,0.476224,-0.144600,0.039608,-0.096413,-0.116913,0.016725,-0.458426,-0.888575,0.022552,-0.062844,-0.033910,15.253847,3.784732,-36.232117,,,,,,,
