timestamp(unix),attitude_roll(radians),attitude_pitch(radians),attitude_yaw(radians),rotation_rate_x(radians/s),rotation_rate_y(radians/s),rotation_rate_z(radians/s),gravity_x(G),gravity_y(G),gravity_z(G),user_acc_x(G),user_acc_y(G),user_acc_z(G),magnetic_field_x(microteslas),magnetic_field_y(microteslas),magnetic_field_z(microteslas),latitude(degree),longitude(degree),altitude(meter),speed(m/s),course(degree),timestamp(unix),User Mark
1504199778.014391,0.000015,0.581090,-0.338364,0.028041,0.098554,-0.135337,0.000013,-0.548935,-0.835865,-0.003125,0.015778,0.018436,16.804491,-12.347028,-29.357269,,,,,,,
1504199778.024401,0.001179,0.580948,-0.340007,-0.011921,0.025376,-0.155557,0.000986,-0.548817,-0.835942,-0.013712,0.023731,0.024342,16.804491,-12.347028,-29.357269,,,,,,,
1504199778.034411,0.001742,0.580399,-0.341963,-0.069252,-0.078571,-0.165079,0.001457,-0.548357,-0.836243,-0.021675,0.023226,0.004257,16.879290,-12.271695,-29.357635,,,,,,,
1504199778.044420,0.001125,0.579317,-0.343775,-0.118223,-0.185814,-0.144694,0.000942,-0.547453,-0.836836,-0.015453,0.011472,-0.021944,16.879290,-12.271695,-29.357635,,,,,,,
1504199778.054430,-0.000467,0.578021,-0.345178,-0.130634,-0.247554,-0.108315,-0.000392,-0.546368,-0.837545,0.000285,-0.001560,-0.041208,16.880007,-12.422147,-29.131500,,,,,,,
1504199778.064440,-0.002415,0.576648,-0.346075,-0.106308,-0.243544,-0.059180,-0.002024,-0.545217,-0.838293,0.003642,-0.010814,-0.035105,16.880007,-12.422147,-29.131500,,,,,,,
1504199778.074450,-0.004401,0.575975,-0.346332,-0.053924,-0.199272,-0.008999,-0.003691,-0.544652,-0.838654,0.015349,-0.017848,-0.020157,16.728960,-12.271924,-29.582977,,,,,,,
1504199778.084459,-0.006117,0.575937,-0.346000,0.014604,-0.138083,0.040112,-0.005130,-0.544621,-0.838667,0.020420,-0.022487,-0.005205,16.728960,-12.271924,-29.582977,,,,,,,
1504199778.094469,-0.007443,0.576610,-0.345133,0.084319,-0.067304,0.080669,-0.006239,-0.545185,-0.838293,0.019896,-0.025845,0.010107,16.953356,-12.120603,-29.733582,,,,,,,
1504199778.104479,-0.007955,0.578679,-0.344051,0.145563,0.003561,0.109469,-0.006659,-0.546919,-0.837159,0.012977,-0.024828,0.023851,16.953356,-12.120603,-29.733582,,,,,,,
1504199778.114489,-0.008217,0.580439,-0.342598,0.184429,0.069294,0.123297,-0.006871,-0.548391,-0.836194,0.006047,-0.020548,0.034176,16.729708,-12.571927,-29.580750,,,,,,,
1504199778.124498,-0.008016,0.582384,-0.341071,0.197596,0.116070,0.125372,-0.006695,-0.550017,-0.835127,0.000377,-0.015322,0.037138,16.729708,-12.571927,-29.580750,,,,,,,
1504199778.134508,-0.007372,0.584317,-0.339569,0.192605,0.157672,0.123155,-0.006149,-0.551630,-0.834066,-0.004426,-0.012152,0.038275,16.504152,-12.347928,-29.582977,,,,,,,
1504199778.144518,-0.006513,0.586897,-0.338081,0.179144,0.196167,0.103852,-0.005423,-0.553780,-0.832645,-0.009774,-0.009071,0.042301,16.504152,-12.347928,-29.582977,,,,,,,
1504199778.154528,-0.004769,0.588470,-0.337086,0.150815,0.237988,0.074909,-0.003967,-0.555089,-0.831782,-0.017014,-0.003551,0.049967,16.654863,-12.497708,-29.356506,,,,,,,
1504199778.164538,-0.002675,0.589696,-0.336392,0.111557,0.250059,0.050270,-0.002223,-0.556108,-0.831107,-0.011418,-0.000395,0.054740,16.654863,-12.497708,-29.356506,,,,,,,
1504199778.174547,-0.000529,0.590416,-0.336004,0.057094,0.229220,0.026729,-0.000439,-0.556707,-0.830709,-0.018543,-0.004878,0.054754,16.730242,-12.647367,-29.355194,,,,,,,
1504199778.184557,0.001030,0.591193,-0.335605,-0.008133,0.199939,0.009591,0.000855,-0.557352,-0.830276,-0.016053,-0.003332,0.047530,16.730242,-12.647367,-29.355194,,,,,,,
1504199778.194567,0.002884,0.590604,-0.335650,-0.076492,0.179209,-0.008636,0.002395,-0.556863,-0.830601,-0.011993,0.006127,0.034810,16.956697,-12.872556,-28.752930,,,,,,,
1504199778.204577,0.004769,0.589325,-0.335884,-0.143667,0.174451,-0.024755,0.003965,-0.555800,-0.831306,-0.009839,0.012206,0.026711,16.956697,-12.872556,-28.752930,,,,,,,
1504199778.214556,0.006936,0.587652,-0.336389,-0.171068,0.200279,-0.051534,0.005772,-0.554408,-0.832225,-0.003285,0.010280,0.017207,16.955767,-12.721814,-29.129089,,,,,,,
1504199778.224566,0.009691,0.585961,-0.337283,-0.155833,0.223621,-0.073964,0.008074,-0.553001,-0.833142,0.002210,0.010474,0.014721,16.955767,-12.721814,-29.129089,,,,,,,
1504199778.234575,0.012656,0.584757,-0.338315,-0.105435,0.244535,-0.090992,0.010553,-0.551997,-0.833779,-0.007150,0.037333,0.031884,17.255388,-12.570462,-29.129456,,,,,,,
1504199778.244585,0.015886,0.584185,-0.339518,-0.038020,0.259980,-0.105846,0.013251,-0.551520,-0.834056,-0.026740,0.039344,0.037288,17.255388,-12.570462,-29.129456,,,,,,,
1504199778.254595,0.019373,0.584235,-0.340897,0.020852,0.276556,-0.117515,0.016159,-0.551561,-0.833978,-0.031814,0.047151,0.045633,17.179750,-12.270947,-29.056885,,,,,,,
1504199778.264605,0.022140,0.584367,-0.341901,0.075340,0.282503,-0.123831,0.018465,-0.551672,-0.833857,-0.033647,0.052175,0.041880,17.179750,-12.270947,-29.056885,,,,,,,
1504199778.274614,0.025907,0.585442,-0.343521,0.121317,0.287464,-0.135502,0.021590,-0.552568,-0.833188,-0.039641,0.048143,0.032163,17.554476,-12.119412,-28.982117,,,,,,,
1504199778.284624,0.029916,0.586953,-0.345341,0.167408,0.304151,-0.151462,0.024905,-0.553826,-0.832260,-0.038898,0.045312,0.025756,17.554476,-12.119412,-28.982117,,,,,,,
1504199778.294634,0.034347,0.588962,-0.347356,0.216851,0.341054,-0.165318,0.028554,-0.555499,-0.831027,-0.034047,0.046893,0.020282,17.705187,-12.493436,-29.128906,,,,,,,
1504199778.304644,0.038556,0.590981,-0.349132,0.238666,0.390970,-0.181375,0.032009,-0.557176,-0.829777,-0.036418,0.035982,0.025135,17.705187,-12.493436,-29.128906,,,,,,,
1504199778.314653,0.044113,0.593258,-0.351590,0.233684,0.425127,-0.197455,0.036563,-0.559066,-0.828317,-0.035419,0.021712,0.016046,17.855913,-12.643216,-28.902405,,,,,,,
1504199778.324663,0.049748,0.595426,-0.354121,0.222944,0.415626,-0.198525,0.041170,-0.560862,-0.826885,-0.025590,0.007471,-0.004551,17.855913,-12.643216,-28.902405,,,,,,,
1504199778.334673,0.054892,0.597379,-0.356584,0.201121,0.360386,-0.189926,0.045363,-0.562477,-0.825567,-0.014174,-0.010765,-0.022043,17.931810,-12.868329,-28.675507,,,,,,,
1504199778.344683,0.059242,0.599116,-0.358831,0.174813,0.285988,-0.168492,0.048895,-0.563913,-0.824386,0.000116,-0.025489,-0.036683,17.931810,-12.868329,-28.675507,,,,,,,
1504199778.354693,0.062724,0.600662,-0.360713,0.162472,0.229581,-0.137460,0.051711,-0.565189,-0.823339,0.022309,-0.039135,-0.053248,18.231432,-12.716977,-28.675873,,,,,,,
1504199778.364702,0.065608,0.602211,-0.362174,0.163122,0.200766,-0.100049,0.054028,-0.566466,-0.822312,0.040683,-0.056016,-0.055587,18.231432,-12.716977,-28.675873,,,,,,,
1504199778.374712,0.068132,0.603761,-0.363128,0.157566,0.199702,-0.057360,0.056043,-0.567742,-0.821296,0.047121,-0.070777,-0.038445,18.381197,-12.491742,-28.452209,,,,,,,
1504199778.384722,0.071912,0.606401,-0.364389,0.142467,0.207247,-0.010441,0.059040,-0.569914,-0.819581,0.053647,-0.084505,-0.029190,18.457262,-12.642301,-28.000916,,,,,,,
1504199778.394732,0.073928,0.607738,-0.364128,0.129459,0.216885,0.046092,0.060635,-0.571012,-0.818699,0.065769,-0.098727,-0.021923,18.457262,-12.642301,-28.000916,,,,,,,
1504199778.404741,0.075530,0.609029,-0.363179,0.119555,0.213713,0.101585,0.061891,-0.572072,-0.817865,0.072844,-0.100765,-0.011053,18.532183,-12.567121,-27.926270,,,,,,,
1504199778.414751,0.076638,0.610306,-0.361649,0.117038,0.192377,0.144315,0.062741,-0.573118,-0.817067,0.073413,-0.083300,-0.002299,18.532183,-12.567121,-27.926270,,,,,,,
1504199778.424761,0.077262,0.611599,-0.359818,0.116666,0.157196,0.162522,0.063194,-0.574177,-0.816288,0.062310,-0.048427,-0.005138,18.982210,-12.714643,-28.149048,,,,,,,
1504199778.434771,0.077355,0.612773,-0.357955,0.101303,0.101915,0.159391,0.063218,-0.575138,-0.815610,0.046661,-0.012676,-0.013369,18.982210,-12.714643,-28.149048,,,,,,,
1504199778.444780,0.076933,0.613653,-0.356252,0.067832,0.040406,0.140228,0.062834,-0.575858,-0.815131,0.030061,0.003394,-0.025262,18.758379,-13.090955,-27.996796,,,,,,,
1504199778.454790,0.076237,0.614165,-0.354912,0.034621,0.000226,0.102882,0.062245,-0.576277,-0.814881,0.011806,0.003263,-0.039291,18.758379,-13.090955,-27.996796,,,,,,,
1504199778.464800,0.075674,0.614426,-0.353994,0.015597,0.001483,0.068690,0.061775,-0.576490,-0.814766,0.000771,-0.000247,-0.042610,18.459139,-13.168057,-27.621979,,,,,,,
1504199778.474810,0.075631,0.614514,-0.353428,0.004295,0.037837,0.039787,0.061735,-0.576562,-0.814718,-0.004195,-0.000678,-0.022898,18.459139,-13.168057,-27.621979,,,,,,,
1504199778.484819,0.076196,0.614555,-0.353095,0.001566,0.086894,0.023684,0.062194,-0.576595,-0.814660,-0.007125,-0.001195,0.001076,18.683535,-13.016751,-27.772522,,,,,,,
1504199778.494829,0.077256,0.614596,-0.352815,0.004061,0.132693,0.024675,0.063056,-0.576629,-0.814569,-0.000312,-0.004624,0.007898,18.683535,-13.016751,-27.772522,,,,,,,
1504199778.504839,0.078874,0.615134,-0.352576,0.015911,0.157089,0.041730,0.064349,-0.577068,-0.814157,0.007794,-0.006840,0.013803,18.458529,-13.017758,-27.773102,,,,,,,
1504199778.514818,0.080118,0.615440,-0.351889,0.029728,0.164411,0.064156,0.065348,-0.577318,-0.813901,0.011922,-0.006911,0.018643,18.458529,-13.017758,-27.773102,,,,,,,
1504199778.524828,0.081210,0.615950,-0.350934,0.049909,0.166354,0.085536,0.066213,-0.577734,-0.813535,0.011134,-0.003976,0.020688,18.909746,-13.316327,-27.469727,,,,,,,
1504199778.534838,0.082484,0.616758,-0.349818,0.082127,0.201239,0.099406,0.067211,-0.578393,-0.812984,0.001728,-0.000678,0.019711,18.909746,-13.316327,-27.469727,,,,,,,
1504199778.544848,0.084273,0.618366,-0.348660,0.127375,0.259469,0.105786,0.068586,-0.579705,-0.811935,-0.002104,0.000924,0.020416,18.834444,-13.465772,-27.918793,,,,,,,
1504199778.554857,0.086741,0.620107,-0.347480,0.180238,0.335751,0.111081,0.070503,-0.581123,-0.810756,-0.006309,0.010139,0.030452,18.834444,-13.465772,-27.918793,,,,,,,
1504199778.564867,0.090057,0.622418,-0.346346,0.234319,0.426949,0.109946,0.073070,-0.583001,-0.809179,-0.007319,0.015008,0.038168,18.985231,-13.466153,-27.393402,,,,,,,
1504199778.574877,0.095128,0.625228,-0.345500,0.282570,0.578951,0.091616,0.077016,-0.585282,-0.807164,-0.015966,0.016572,0.044438,18.985231,-13.466153,-27.393402,,,,,,,
1504199778.584887,0.100676,0.628111,-0.344798,0.271064,0.600370,0.079817,0.081323,-0.587617,-0.805042,-0.018350,0.022768,0.114871,19.286623,-13.840390,-27.089844,,,,,,,
1504199778.594896,0.105851,0.630589,-0.344234,0.191551,0.520057,0.063810,0.085334,-0.589621,-0.803160,-0.019935,-0.003763,0.111815,19.286623,-13.840390,-27.089844,,,,,,,
1504199778.604906,0.109428,0.631611,-0.343793,0.064309,0.336781,0.039362,0.088141,-0.590446,-0.802250,-0.006811,-0.020119,0.042988,19.435946,-13.614575,-27.166138,,,,,,,
1504199778.614916,0.111254,0.631367,-0.343440,-0.056509,0.160905,0.022384,0.089621,-0.590249,-0.802231,0.011544,-0.027427,-0.028198,19.435946,-13.614575,-27.166138,,,,,,,
1504199778.624926,0.111657,0.630149,-0.343165,-0.142867,0.024172,0.004330,0.090025,-0.589265,-0.802908,0.038775,-0.003722,-0.069009,19.661348,-13.688855,-27.015045,,,,,,,
1504199778.634935,0.112133,0.627073,-0.343610,-0.186015,-0.050036,-0.022303,0.090609,-0.586777,-0.804663,0.030851,0.004517,-0.061624,19.661348,-13.688855,-27.015045,,,,,,,
1504199778.644945,0.111632,0.625143,-0.343938,-0.184971,-0.073453,-0.055350,0.090333,-0.585213,-0.805832,0.034561,0.003579,-0.049087,19.661272,-13.614011,-26.940582,,,,,,,
1504199778.654955,0.111056,0.623408,-0.344530,-0.160554,-0.098147,-0.070207,0.089980,-0.583806,-0.806892,0.041688,0.007496,-0.013390,19.661272,-13.614011,-26.940582,,,,,,,
1504199778.664965,0.110131,0.621858,-0.345307,-0.147039,-0.150460,-0.082901,0.089333,-0.582547,-0.807873,0.041450,0.016339,0.005368,19.436052,-13.614728,-27.091156,,,,,,,
1504199778.674975,0.109562,0.619327,-0.346839,-0.136974,-0.233643,-0.096618,0.089035,-0.580488,-0.809387,0.028000,0.032956,-0.004685,19.436052,-13.614728,-27.091156,,,,,,,
1504199778.684984,0.107352,0.617813,-0.348079,-0.141725,-0.311364,-0.124241,0.087340,-0.579254,-0.810455,0.011568,0.053955,-0.023774,19.436434,-13.764722,-27.090027,,,,,,,
1504199778.694994,0.104978,0.616022,-0.349800,-0.171576,-0.337709,-0.171212,0.085524,-0.577793,-0.811690,0.000627,0.051075,-0.025834,19.436434,-13.764722,-27.090027,,,,,,,
1504199778.705004,0.103264,0.613830,-0.352110,-0.208260,-0.287270,-0.222600,0.084263,-0.576002,-0.813094,0.002300,0.036573,-0.018465,19.136385,-13.840772,-27.240234,,,,,,,
1504199778.715014,0.103076,0.610609,-0.355075,-0.248692,-0.168607,-0.269846,0.084301,-0.573367,-0.814950,0.005726,0.023531,0.003946,19.136385,-13.840772,-27.240234,,,,,,,
1504199778.725023,0.104379,0.607497,-0.358386,-0.291041,-0.020096,-0.311810,0.085548,-0.570814,-0.816611,0.000710,0.011396,0.026282,19.134813,-13.390180,-27.543610,,,,,,,
1504199778.735033,0.107458,0.603994,-0.362120,-0.323839,0.124070,-0.350548,0.088276,-0.567935,-0.818326,0.000469,0.007022,0.035138,19.134813,-13.390180,-27.543610,,,,,,,
1504199778.745043,0.111705,0.600227,-0.366247,-0.343253,0.207387,-0.389155,0.091988,-0.564830,-0.820064,-0.008279,0.015498,0.039608,19.359240,-13.164166,-27.544739,,,,,,,
1504199778.755053,0.115873,0.596310,-0.370690,-0.369770,0.189550,-0.448942,0.095660,-0.561593,-0.821865,-0.028171,0.010186,0.035763,19.359240,-13.164166,-27.544739,,,,,,,
1504199778.765062,0.120033,0.591870,-0.376273,-0.391683,0.065143,-0.533085,0.099376,-0.557914,-0.823928,-0.037883,-0.002389,0.025161,19.657885,-12.712506,-27.697357,,,,,,,
1504199778.775072,0.122554,0.587087,-0.382739,-0.417726,-0.170062,-0.608501,0.101778,-0.553938,-0.826313,-0.031633,0.001677,0.006855,19.657885,-12.712506,-27.697357,,,,,,,
1504199778.785082,0.122680,0.581890,-0.389865,-0.450650,-0.453182,-0.664631,0.102233,-0.549604,-0.829147,-0.031402,-0.001467,-0.005296,19.882235,-12.411649,-27.624084,,,,,,,
1504199778.795092,0.120040,0.576267,-0.397211,-0.490007,-0.720298,-0.688778,0.100413,-0.544898,-0.832469,-0.039149,-0.008935,-0.014532,19.882235,-12.411649,-27.624084,,,,,,,
1504199778.805101,0.115379,0.570288,-0.404743,-0.528863,-0.918166,-0.702372,0.096904,-0.539875,-0.836149,-0.041134,-0.003918,-0.018282,19.504717,-11.587735,-27.931183,,,,,,,
1504199778.815111,0.109254,0.563963,-0.412448,-0.565095,-1.057442,-0.720335,0.092152,-0.534539,-0.840105,-0.026768,0.005914,-0.018248,19.504717,-11.587735,-27.931183,,,,,,,
1504199778.825088,0.101759,0.557187,-0.420235,-0.617415,-1.199795,-0.726579,0.086219,-0.528801,-0.844355,0.003152,0.017799,-0.020833,19.202501,-11.287137,-28.909210,,,,,,,
1504199778.835098,0.092497,0.549814,-0.427888,-0.683933,-1.371886,-0.714650,0.078753,-0.522529,-0.848977,0.016538,0.013084,-0.034233,19.202501,-11.287137,-28.909210,,,,,,,
1504199778.845108,0.081311,0.541953,-0.435265,-0.743014,-1.538727,-0.687773,0.069583,-0.515811,-0.853872,0.021833,-0.000287,-0.048533,18.375063,-10.540097,-29.291870,,,,,,,
1504199778.855118,0.068840,0.533628,-0.442299,-0.797174,-1.620365,-0.655701,0.059223,-0.508660,-0.858928,0.031354,-0.003943,-0.046910,18.375063,-10.540097,-29.291870,,,,,,,
1504199778.865128,0.056277,0.525028,-0.448885,-0.828959,-1.562611,-0.607825,0.048671,-0.501237,-0.863940,0.042622,-0.007278,-0.031400,17.773149,-10.091748,-29.821747,,,,,,,
1504199778.875137,0.045082,0.516396,-0.454810,-0.834108,-1.360180,-0.534540,0.039190,-0.493749,-0.868721,0.043207,-0.015848,-0.000695,17.773149,-10.091748,-29.821747,,,,,,,
1504199778.885147,0.035955,0.508052,-0.459864,-0.807835,-1.090887,-0.450645,0.031407,-0.486476,-0.873129,0.031704,-0.019963,0.041388,17.320070,-9.267423,-30.504059,,,,,,,
1504199778.895157,0.028901,0.500132,-0.463917,-0.768975,-0.841955,-0.356018,0.025357,-0.479542,-0.877153,0.021334,-0.024822,0.072145,17.320070,-9.267423,-30.504059,,,,,,,
1504199778.905167,0.023351,0.492633,-0.466973,-0.733800,-0.656924,-0.266621,0.020572,-0.472948,-0.880850,0.012310,-0.034834,0.084525,16.717089,-8.443921,-31.111725,,,,,,,
1504199778.915176,0.018814,0.485488,-0.469170,-0.705414,-0.528300,-0.189946,0.016639,-0.466640,-0.884291,0.014154,-0.035526,0.082228,16.717089,-8.443921,-31.111725,,,,,,,
1504199778.925186,0.014881,0.478562,-0.470727,-0.683667,-0.445415,-0.138819,0.013209,-0.460503,-0.887560,0.018239,-0.033973,0.078005,16.490633,-8.218732,-31.713989,,,,,,,
1504199778.935196,0.011357,0.471953,-0.471922,-0.650348,-0.395638,-0.107894,0.010116,-0.454627,-0.890625,0.023469,-0.038339,0.071563,16.490633,-8.218732,-31.713989,,,,,,,
1504199778.945206,0.008019,0.465911,-0.472941,-0.585200,-0.378075,-0.092869,0.007165,-0.449237,-0.893384,0.028556,-0.038693,0.066693,16.264162,-7.769300,-31.942932,,,,,,,
1504199778.955215,0.004636,0.461032,-0.474032,-0.497931,-0.409788,-0.096921,0.004152,-0.444873,-0.895584,0.025481,-0.039502,0.058670,16.264162,-7.769300,-31.942932,,,,,,,
1504199778.965225,0.000594,0.456652,-0.475164,-0.417289,-0.470118,-0.104147,0.000533,-0.440945,-0.897534,0.026887,-0.043567,0.041088,16.038897,-7.620450,-31.869598,,,,,,,
1504199778.975235,-0.004012,0.453019,-0.476335,-0.347286,-0.521844,-0.103934,-0.003607,-0.437682,-0.899123,0.028036,-0.049638,0.022475,16.038897,-7.620450,-31.869598,,,,,,,
1504199778.985245,-0.008692,0.449945,-0.477524,-0.295991,-0.511610,-0.103864,-0.007827,-0.434916,-0.900437,0.023391,-0.050375,0.015641,15.662203,-7.171384,-32.248932,,,,,,,
1504199778.995254,-0.011852,0.448908,-0.478962,-0.247208,-0.409720,-0.092219,-0.010677,-0.433982,-0.900858,0.024929,-0.045419,0.019862,15.662203,-7.171384,-32.248932,,,,,,,
1504199779.005264,-0.014289,0.446902,-0.479845,-0.184028,-0.233374,-0.070005,-0.012885,-0.432174,-0.901698,0.021247,-0.037430,0.036769,15.362398,-7.247739,-32.249084,,,,,,,
1504199779.015274,-0.014621,0.445727,-0.480448,-0.094756,0.003497,-0.047853,-0.013192,-0.431114,-0.902201,0.009484,-0.020317,0.059214,15.362398,-7.247739,-32.249084,,,,,,,
1504199779.025284,-0.012554,0.445530,-0.480848,0.006342,0.247736,-0.032097,-0.011328,-0.430936,-0.902311,-0.004114,-0.003436,0.071821,15.286196,-6.947476,-32.551544,,,,,,,
1504199779.035294,-0.009106,0.446894,-0.480963,0.095243,0.421762,-0.035449,-0.008212,-0.432167,-0.901756,-0.015348,0.016472,0.067787,15.286196,-6.947476,-32.551544,,,,,,,
1504199779.045303,-0.004221,0.448170,-0.481555,0.133057,0.464103,-0.062143,-0.003804,-0.433317,-0.901233,-0.023784,0.024626,0.043018,15.661837,-7.021390,-32.250061,,,,,,,
1504199779.055313,0.000345,0.449490,-0.482626,0.128381,0.383206,-0.110042,0.000311,-0.434506,-0.900669,-0.023382,0.022626,-0.001263,15.661837,-7.021390,-32.250061,,,,,,,
1504199779.065323,0.003745,0.450636,-0.484354,0.111370,0.219306,-0.170624,0.003371,-0.435538,-0.900164,-0.022078,0.021827,-0.044996,15.887514,-7.245526,-32.172791,,,,,,,
1504199779.075333,0.005040,0.449817,-0.486550,0.089934,0.035196,-0.235447,0.004539,-0.434801,-0.900515,-0.017616,0.026186,-0.068220,15.887514,-7.245526,-32.172791,,,,,,,
1504199779.085342,0.005567,0.450545,-0.489715,0.070875,-0.121222,-0.301383,0.005011,-0.435457,-0.900196,-0.020041,0.032762,-0.082485,15.737276,-7.245908,-32.323181,,,,,,,
1504199779.095352,0.005279,0.451242,-0.493734,0.071516,-0.225570,-0.383388,0.004750,-0.436084,-0.899894,-0.030019,0.036212,-0.085412,15.737276,-7.245908,-32.323181,,,,,,,
1504199779.105362,0.004935,0.451888,-0.498838,0.064230,-0.265898,-0.484733,0.004440,-0.436664,-0.899613,-0.033004,0.038715,-0.074813,15.735964,-6.720899,-32.327118,,,,,,,
1504199779.115372,0.004058,0.451147,-0.504786,0.055858,-0.305159,-0.582878,0.003652,-0.435998,-0.899940,-0.026998,0.037454,-0.066109,15.735964,-6.720899,-32.327118,,,,,,,
1504199779.125351,0.003508,0.451133,-0.511808,0.046291,-0.348691,-0.660737,0.003157,-0.435985,-0.899948,-0.028792,0.027141,-0.069183,15.585558,-6.646268,-32.478058,,,,,,,
1504199779.135361,0.002984,0.451254,-0.519641,0.028148,-0.388969,-0.724741,0.002685,-0.436095,-0.899897,-0.034820,0.023802,-0.062261,15.585558,-6.646268,-32.478058,,,,,,,
1504199779.145370,0.002523,0.451115,-0.528108,-0.007022,-0.415268,-0.774923,0.002270,-0.435969,-0.899959,-0.026196,0.037806,-0.054295,15.735552,-6.645597,-32.477692,,,,,,,
1504199779.155380,0.002082,0.450615,-0.537115,-0.060378,-0.445682,-0.821928,0.001874,-0.435519,-0.900178,-0.017866,0.054217,-0.049835,15.735552,-6.645597,-32.477692,,,,,,,
1504199779.165390,0.001375,0.449503,-0.546688,-0.126731,-0.503689,-0.874243,0.001238,-0.434518,-0.900662,-0.010882,0.066674,-0.045672,15.509752,-6.421308,-32.629913,,,,,,,
1504199779.175400,0.000189,0.447782,-0.556942,-0.183587,-0.584137,-0.941446,0.000170,-0.432967,-0.901410,-0.000903,0.071227,-0.039050,15.509752,-6.421308,-32.629913,,,,,,,
1504199779.185410,-0.001502,0.444763,-0.568118,-0.205319,-0.684037,-1.024567,-0.001356,-0.430244,-0.902712,0.008222,0.063300,-0.026381,15.132433,-5.672391,-32.936493,,,,,,,
1504199779.195419,-0.004074,0.442627,-0.580144,-0.222947,-0.804220,-1.105508,-0.003681,-0.428315,-0.903622,0.019932,0.044739,-0.009036,15.132433,-5.672391,-32.936493,,,,,,,
1504199779.205429,-0.007748,0.440265,-0.592998,-0.252611,-0.955218,-1.175742,-0.007009,-0.426179,-0.904612,0.029058,0.019426,-0.006018,14.907885,-5.674008,-32.637024,,,,,,,
1504199779.215439,-0.012893,0.437665,-0.606379,-0.277217,-1.122273,-1.216051,-0.011678,-0.423826,-0.905668,0.045705,0.011717,-0.019396,14.907885,-5.674008,-32.637024,,,,,,,
1504199779.225449,-0.019284,0.435048,-0.620048,-0.272846,-1.253359,-1.232891,-0.017487,-0.421454,-0.906681,0.058579,0.018271,-0.021404,14.456224,-5.374829,-33.240387,,,,,,,
1504199779.235458,-0.026572,0.432822,-0.633734,-0.240240,-1.313299,-1.234864,-0.024119,-0.419434,-0.907465,0.072321,0.035965,0.004176,14.456224,-5.374829,-33.240387,,,,,,,
1504199779.245468,-0.033938,0.431164,-0.647339,-0.188949,-1.298811,-1.227329,-0.030826,-0.417929,-0.907957,0.087604,0.062155,0.037687,13.779543,-4.927121,-33.620453,,,,,,,
1504199779.255478,-0.040846,0.430195,-0.660852,-0.126608,-1.237526,-1.220924,-0.037114,-0.417048,-0.908126,0.090672,0.078547,0.070419,13.779543,-4.927121,-33.620453,,,,,,,
1504199779.265488,-0.046661,0.429882,-0.674306,-0.074240,-1.093036,-1.221088,-0.042400,-0.416764,-0.908025,0.085384,0.070466,0.101858,12.953264,-4.555371,-33.850342,,,,,,,
1504199779.275497,-0.047826,0.429277,-0.688287,-0.146228,-0.527610,-1.284119,-0.043470,-0.416213,-0.908227,0.065138,0.043670,0.137124,12.953264,-4.555371,-33.850342,,,,,,,
1504199779.285507,-0.041872,0.427393,-0.702782,-0.277220,0.152286,-1.313298,-0.038094,-0.414500,-0.909252,0.049157,0.043254,0.250698,12.576876,-4.181455,-34.154053,,,,,,,
1504199779.295517,-0.031357,0.424531,-0.717675,-0.351056,0.499258,-1.355666,-0.028568,-0.411893,-0.910784,0.049412,0.009077,0.380236,12.576876,-4.181455,-34.154053,,,,,,,
1504199779.305527,-0.019455,0.421023,-0.733131,-0.399423,0.555123,-1.409219,-0.017755,-0.408695,-0.912498,0.055871,-0.043484,0.337364,12.874727,-3.280255,-34.085083,,,,,,,
1504199779.315536,-0.008070,0.416900,-0.749036,-0.442635,0.459623,-1.455024,-0.007379,-0.404928,-0.914319,0.049509,-0.066522,0.225537,12.874727,-3.280255,-34.085083,,,,,,,
1504199779.325546,0.001999,0.412117,-0.765123,-0.495866,0.330076,-1.471966,0.001832,-0.400550,-0.916273,0.038604,-0.092233,0.140913,13.099337,-3.129239,-34.085663,,,,,,,
1504199779.335556,0.010390,0.407089,-0.780482,-0.493341,0.165863,-1.385212,0.009541,-0.395938,-0.918228,0.042629,-0.092328,0.082458,13.099337,-3.129239,-34.085663,,,,,,,
1504199779.345566,0.014667,0.402519,-0.795006,-0.414921,-0.271729,-1.337339,0.013494,-0.391737,-0.919978,0.096506,0.058073,0.047313,13.547380,-2.302365,-34.015717,,,,,,,
1504199779.355576,0.015162,0.398364,-0.809644,-0.408564,-0.536063,-1.324053,0.013975,-0.387911,-0.921591,0.074145,0.143984,-0.073908,13.547380,-2.302365,-34.015717,,,,,,,
1504199779.365585,0.016713,0.393746,-0.823099,-0.442443,-0.304657,-1.219914,0.015434,-0.383651,-0.923349,-0.035087,0.097014,-0.133062,13.095537,-1.479688,-33.873047,,,,,,,
1504199779.375595,0.019242,0.390197,-0.835502,-0.282970,-0.185653,-1.129119,0.017795,-0.380371,-0.924663,-0.040500,-0.046326,0.091838,13.095537,-1.479688,-33.873047,,,,,,,
1504199779.385605,0.022547,0.389864,-0.845812,0.095867,-0.023859,-0.884312,0.020853,-0.380063,-0.924726,0.033133,0.018719,0.137113,13.169970,-1.478604,-34.247864,,,,,,,
1504199779.395615,0.025754,0.394612,-0.852654,0.627350,0.084345,-0.526002,0.023772,-0.384450,-0.922840,0.049226,0.100743,0.085956,13.169970,-1.478604,-34.247864,,,,,,,
1504199779.405624,0.028661,0.404574,-0.856212,1.115298,0.172738,-0.241384,0.026343,-0.393627,-0.918893,0.017495,-0.021931,-0.018287,13.095583,-1.629239,-34.096924,,,,,,,
1504199779.415634,0.031722,0.417653,-0.858536,1.351144,0.224001,-0.169549,0.028991,-0.405616,-0.913584,0.001130,-0.160576,-0.105658,13.095583,-1.629239,-34.096924,,,,,,,
1504199779.425613,0.035347,0.430579,-0.861468,1.248108,0.234517,-0.244465,0.032114,-0.417397,-0.908157,0.005773,-0.194694,-0.115937,13.246935,-2.078870,-33.943176,,,,,,,
1504199779.435623,0.038282,0.436837,-0.864405,0.434100,0.226331,-0.271478,0.034679,-0.423075,-0.905431,-0.014614,-0.229009,-0.071788,13.246935,-2.078870,-33.943176,,,,,,,
1504199779.445633,0.042187,0.436815,-0.868433,-0.085429,0.163597,-0.386480,0.038214,-0.423055,-0.905298,0.051126,-0.156916,0.049615,13.322832,-2.528226,-34.089600,,,,,,,
1504199779.455643,0.042222,0.433855,-0.872396,-0.360256,-0.290258,-0.346662,0.038299,-0.420372,-0.906543,0.046204,0.012993,0.177845,13.322832,-2.528226,-34.089600,,,,,,,
1504199779.465652,0.038567,0.428947,-0.875539,-0.489622,-0.563097,-0.302642,0.035064,-0.415914,-0.908728,0.013596,0.202001,-0.032480,13.323030,-2.603238,-34.089050,,,,,,,
1504199779.475662,0.032590,0.424009,-0.879369,-0.481470,-0.804954,-0.399335,0.029699,-0.411418,-0.910963,0.043147,0.098582,0.004621,13.323030,-2.603238,-34.089050,,,,,,,
1504199779.485672,0.026911,0.418970,-0.885485,-0.523134,-0.823550,-0.632068,0.024581,-0.406820,-0.913177,0.029146,-0.045572,0.029999,12.945925,-1.854611,-34.245605,,,,,,,
1504199779.495682,0.022155,0.413457,-0.894446,-0.531540,-0.840253,-0.898903,0.020287,-0.401777,-0.915513,0.026787,-0.118166,0.122574,12.945925,-1.854611,-34.245605,,,,,,,
1504199779.505692,0.018533,0.408110,-0.906210,-0.497099,-0.824294,-1.147577,0.017010,-0.396875,-0.917715,0.025531,-0.101340,0.207098,12.195024,-1.632535,-34.474152,,,,,,,
1504199779.515701,0.015815,0.404581,-0.919877,-0.254087,-0.809101,-1.287012,0.014537,-0.393634,-0.919152,0.040516,-0.049543,0.246591,12.195024,-1.632535,-34.474152,,,,,,,
1504199779.525711,0.013116,0.405023,-0.934702,0.177987,-0.876491,-1.387547,0.012055,-0.394040,-0.919014,0.107681,-0.010104,0.285088,11.743410,-1.034406,-34.554749,,,,,,,
1504199779.535721,0.009873,0.409470,-0.951107,0.535129,-1.009273,-1.543603,0.009057,-0.398123,-0.917287,0.172110,-0.024088,0.272008,11.743410,-1.034406,-34.554749,,,,,,,
1504199779.545731,0.005788,0.416124,-0.969744,0.718177,-1.202364,-1.759628,0.005294,-0.404218,-0.914647,0.221192,-0.027606,0.257421,11.517885,-0.959973,-34.780853,,,,,,,
1504199779.555740,0.001704,0.423461,-0.991531,0.735862,-1.318338,-2.068939,0.001553,-0.410919,-0.911671,0.286838,0.019027,0.236866,11.517885,-0.959973,-34.780853,,,,,,,
1504199779.565750,-0.001209,0.429744,-1.017332,0.575098,-1.374169,-2.441643,-0.001099,-0.416638,-0.909072,0.364274,-0.033023,0.237334,10.317507,-1.039624,-35.158264,,,,,,,
1504199779.575760,-0.002246,0.433357,-1.047692,0.283811,-1.372396,-2.864842,-0.002038,-0.419920,-0.907559,0.433496,-0.115725,0.250531,10.317507,-1.039624,-35.158264,,,,,,,
1504199779.585770,-0.001796,0.434477,-1.081890,0.064125,-1.415027,-3.168290,-0.001629,-0.420936,-0.907089,0.412945,-0.142281,0.235397,9.492220,-0.968183,-35.235870,,,,,,,
1504199779.595779,-0.000445,0.433160,-1.118602,-0.221870,-1.409273,-3.361995,-0.000404,-0.419741,-0.907644,0.254341,-0.166121,0.243307,9.492220,-0.968183,-35.235870,,,,,,,
1504199779.605789,0.001175,0.429251,-1.156155,-0.454240,-1.413699,-3.413625,0.001069,-0.416190,-0.909277,0.046875,-0.230279,0.227179,8.290758,-0.523114,-35.467224,,,,,,,
1504199779.615799,0.002245,0.424216,-1.193068,-0.536830,-1.415240,-3.328372,0.002046,-0.411606,-0.911359,-0.031877,-0.280670,0.143842,8.290758,-0.523114,-35.467224,,,,,,,
1504199779.625809,0.001950,0.419314,-1.227751,-0.472224,-1.466094,-3.099746,0.001781,-0.407134,-0.913367,-0.095210,-0.327134,0.128393,7.388918,0.073291,-35.698944,,,,,,,
1504199779.635818,-0.000859,0.415403,-1.259190,-0.363711,-1.581325,-2.793010,-0.000786,-0.403559,-0.914953,-0.140892,-0.370504,0.127234,7.388918,0.073291,-35.698944,,,,,,,
1504199779.645828,-0.006066,0.412417,-1.287098,-0.289105,-1.657931,-2.471458,-0.005557,-0.400825,-0.916138,-0.161069,-0.382454,0.096848,6.186632,0.893191,-35.858124,,,,,,,
1504199779.655838,-0.012907,0.410138,-1.311559,-0.235148,-1.655500,-2.161822,-0.011836,-0.398736,-0.916989,-0.165151,-0.366446,0.085095,6.186632,0.893191,-35.858124,,,,,,,
1504199779.665848,-0.020623,0.408551,-1.333160,-0.179506,-1.623168,-1.928021,-0.018924,-0.397280,-0.917502,-0.154385,-0.353224,0.090720,4.760775,1.186938,-35.938873,,,,,,,
1504199779.675858,-0.028418,0.407176,-1.353990,-0.195361,-1.598538,-1.918486,-0.026091,-0.396018,-0.917872,-0.122545,-0.340432,0.104136,4.760775,1.186938,-35.938873,,,,,,,
1504199779.685867,-0.035164,0.405392,-1.375770,-0.254915,-1.502042,-2.016960,-0.032307,-0.394379,-0.918380,-0.096218,-0.273849,0.095839,3.710222,1.407199,-35.943146,,,,,,,
1504199779.695877,-0.040059,0.403577,-1.398221,-0.255396,-1.321907,-2.059975,-0.036831,-0.392711,-0.918924,-0.074512,-0.141164,0.077982,3.710222,1.407199,-35.943146,,,,,,,
1504199779.705887,-0.042942,0.402438,-1.420461,-0.171704,-1.106318,-2.022851,-0.039499,-0.391663,-0.919261,-0.079199,-0.071548,0.079874,2.884325,1.628940,-36.171875,,,,,,,
1504199779.715897,-0.044094,0.402620,-1.441768,-0.031789,-0.898706,-1.933313,-0.040555,-0.391830,-0.919143,-0.107623,-0.065415,0.079238,2.884325,1.628940,-36.171875,,,,,,,
1504199779.725876,-0.043784,0.404010,-1.461980,0.081203,-0.719648,-1.839501,-0.040246,-0.393108,-0.918611,-0.123603,-0.058155,0.064073,1.608797,1.922915,-36.027283,,,,,,,
1504199779.735886,-0.042304,0.406109,-1.481454,0.145961,-0.592367,-1.784108,-0.038852,-0.395038,-0.917843,-0.127652,-0.028897,0.039532,1.608797,1.922915,-36.027283,,,,,,,
1504199779.745895,-0.040285,0.408545,-1.500592,0.178165,-0.553229,-1.760639,-0.036960,-0.397274,-0.916955,-0.120953,0.024960,0.007913,1.085192,1.544955,-35.725739,,,,,,,
1504199779.755905,-0.038552,0.411313,-1.519752,0.219356,-0.608974,-1.765806,-0.035328,-0.399813,-0.915916,-0.105130,0.067888,-0.020486,1.085192,1.544955,-35.725739,,,,,,,
1504199779.765915,-0.037532,0.414284,-1.538910,0.232607,-0.683680,-1.761382,-0.034349,-0.402535,-0.914760,-0.089110,0.083901,-0.033681,0.559893,1.617740,-35.802612,,,,,,,
1504199779.775925,-0.037158,0.417568,-1.558217,0.275826,-0.763931,-1.784648,-0.033957,-0.405539,-0.913447,-0.068033,0.124899,-0.039449,0.559893,1.617740,-35.802612,,,,,,,
1504199779.785934,-0.037296,0.421493,-1.577888,0.341615,-0.828377,-1.815375,-0.034024,-0.409123,-0.911844,-0.058307,0.135533,-0.027395,-0.189528,1.389377,-35.802765,,,,,,,
1504199779.795944,-0.037811,0.426113,-1.597846,0.413819,-0.886490,-1.838631,-0.034421,-0.413335,-0.909928,-0.049960,0.137044,-0.017653,-0.189528,1.389377,-35.802765,,,,,,,
1504199779.805954,-0.038824,0.431676,-1.618093,0.507236,-0.962888,-1.866086,-0.035254,-0.418393,-0.907582,-0.039347,0.134015,-0.009731,-1.088087,0.860187,-35.726044,,,,,,,
1504199779.815964,-0.040515,0.437983,-1.638523,0.570599,-1.051843,-1.877561,-0.036681,-0.424113,-0.904866,-0.039262,0.124294,-0.013713,-1.088087,0.860187,-35.726044,,,,,,,
1504199779.825948,-0.043142,0.444827,-1.658957,0.616634,-1.160921,-1.869817,-0.038931,-0.430302,-0.901845,-0.038324,0.137074,-0.024791,-1.688841,1.157489,-35.729767,,,,,,,
1504199779.835958,-0.046757,0.451891,-1.679194,0.621040,-1.261150,-1.844015,-0.042048,-0.436668,-0.898640,-0.033254,0.135322,-0.033840,-1.688841,1.157489,-35.729767,,,,,,,
1504199779.845968,-0.051206,0.458711,-1.699204,0.580820,-1.340761,-1.822596,-0.045892,-0.442792,-0.895449,-0.033118,0.119123,-0.035887,-2.286390,0.179797,-35.723938,,,,,,,
1504199779.855978,-0.056113,0.464996,-1.719155,0.513181,-1.388165,-1.814091,-0.050129,-0.448419,-0.892417,-0.039761,0.111535,-0.033746,-2.286390,0.179797,-35.723938,,,,,,,
1504199779.865988,-0.060983,0.470576,-1.739034,0.432103,-1.375794,-1.796107,-0.054321,-0.453400,-0.889650,-0.052689,0.118698,-0.030897,-3.035292,-0.124021,-35.498505,,,,,,,
1504199779.875997,-0.065326,0.475337,-1.758450,0.342845,-1.293070,-1.736633,-0.058043,-0.457638,-0.887242,-0.064424,0.116360,-0.017696,-3.035292,-0.124021,-35.498505,,,,,,,
1504199779.886007,-0.068905,0.479299,-1.777355,0.260093,-1.207186,-1.693165,-0.061092,-0.461157,-0.885213,-0.071354,0.107764,0.001378,-4.157911,-0.804990,-35.046204,,,,,,,
1504199779.896017,-0.071393,0.482202,-1.795696,0.145709,-1.060325,-1.627443,-0.063199,-0.463731,-0.883719,-0.073245,0.131639,0.005560,-4.157911,-0.804990,-35.046204,,,,,,,
1504199779.906027,-0.072927,0.484145,-1.813498,0.069491,-0.947871,-1.567999,-0.064489,-0.465452,-0.882721,-0.069178,0.108564,0.028564,-5.132719,-0.884366,-35.048065,,,,,,,
1504199779.916036,-0.073973,0.485517,-1.830263,0.016201,-0.872953,-1.459348,-0.065365,-0.466666,-0.882015,-0.077213,0.071417,0.036022,-5.132719,-0.884366,-35.048065,,,,,,,
1504199779.926046,-0.075331,0.486308,-1.845646,-0.032306,-0.852444,-1.327111,-0.066534,-0.467365,-0.881557,-0.080667,0.052356,0.031780,-5.580793,-1.561688,-34.894104,,,,,,,
1504199779.936056,-0.077652,0.486911,-1.859306,-0.027972,-0.877156,-1.165882,-0.068558,-0.467898,-0.881119,-0.087493,0.054553,0.021683,-5.580793,-1.561688,-34.894104,,,,,,,
1504199779.946066,-0.081257,0.487758,-1.870842,0.024326,-0.893762,-0.982169,-0.071702,-0.468646,-0.880471,-0.085250,0.051334,0.014474,-6.405104,-1.790555,-34.819427,,,,,,,
1504199779.956075,-0.085706,0.489319,-1.880346,0.105675,-0.883960,-0.804856,-0.075556,-0.470025,-0.879414,-0.077673,0.048028,0.019138,-6.405104,-1.790555,-34.819427,,,,,,,
1504199779.966085,-0.090455,0.491454,-1.887961,0.167385,-0.810123,-0.650097,-0.079641,-0.471908,-0.878043,-0.070872,0.055816,0.026694,-6.929579,-1.868360,-34.595154,,,,,,,
1504199779.976095,-0.094838,0.493901,-1.893939,0.198637,-0.686912,-0.514700,-0.083378,-0.474064,-0.876534,-0.060176,0.072636,0.032570,-6.929579,-1.868360,-34.595154,,,,,,,
1504199779.986105,-0.098335,0.496122,-1.898687,0.175939,-0.530181,-0.418950,-0.086340,-0.476019,-0.875186,-0.043009,0.085684,0.036182,-7.303892,-2.095197,-34.519409,,,,,,,
1504199779.996115,-0.100512,0.497782,-1.902850,0.109705,-0.377305,-0.371301,-0.088165,-0.477477,-0.874209,-0.023346,0.090408,0.034457,-7.303892,-2.095197,-34.519409,,,,,,,
1504199780.006124,-0.101348,0.498469,-1.906836,0.006131,-0.242206,-0.352506,-0.088863,-0.478082,-0.873808,-0.001774,0.088128,0.034209,-7.602690,-2.397138,-34.217896,,,,,,,
1504199780.016134,-0.100896,0.498141,-1.911098,-0.093168,-0.132672,-0.376354,-0.088484,-0.477793,-0.874005,0.026030,0.078379,0.034359,-7.602690,-2.397138,-34.217896,,,,,,,
1504199780.026113,-0.096135,0.494913,-1.917534,-0.161495,-0.048897,-0.444945,-0.084470,-0.474955,-0.875947,0.053159,0.067729,0.036072,-7.902601,-2.473340,-34.293091,,,,,,,
1504199780.036123,-0.093452,0.493360,-1.923752,-0.219430,-0.028052,-0.561429,-0.082188,-0.473588,-0.876903,0.076862,0.071397,0.040493,-7.902601,-2.473340,-34.293091,,,,,,,
1504199780.046133,-0.090584,0.491545,-1.931253,-0.243911,-0.085285,-0.664908,-0.079750,-0.471989,-0.877990,0.084053,0.091877,0.033782,-7.903395,-2.248044,-34.444763,,,,,,,
1504199780.056143,-0.088148,0.489927,-1.939513,-0.214421,-0.168586,-0.721282,-0.077679,-0.470561,-0.878941,0.082043,0.104411,0.010503,-7.903395,-2.248044,-34.444763,,,,,,,
1504199780.066152,-0.086666,0.488867,-1.947783,-0.152286,-0.265011,-0.712466,-0.076419,-0.469626,-0.879552,0.065616,0.073920,0.001271,-7.901823,-2.698636,-34.141388,,,,,,,
1504199780.076162,-0.086507,0.488333,-1.955508,-0.101123,-0.372047,-0.659885,-0.076301,-0.469154,-0.879814,0.043983,0.028175,0.002708,-7.901823,-2.698636,-34.141388,,,,,,,
1504199780.086172,-0.087737,0.488091,-1.962398,-0.071341,-0.470405,-0.584942,-0.077393,-0.468941,-0.879832,0.027115,-0.011849,0.000743,-7.902388,-2.473645,-34.143097,,,,,,,
1504199780.096182,-0.090224,0.487942,-1.968422,-0.060604,-0.549424,-0.511133,-0.079587,-0.468809,-0.879707,0.017606,-0.053652,0.003944,-7.902388,-2.473645,-34.143097,,,,,,,
1504199780.106191,-0.093710,0.487547,-1.973817,-0.096611,-0.617380,-0.459841,-0.082671,-0.468460,-0.879609,0.017332,-0.073487,0.009262,-8.351698,-2.700818,-34.067505,,,,,,,
1504199780.116201,-0.097889,0.486376,-1.979037,-0.183556,-0.674220,-0.446015,-0.086399,-0.467425,-0.879801,0.022831,-0.067228,0.011789,-8.351698,-2.700818,-34.067505,,,,,,,
1504199780.126211,-0.102367,0.484383,-1.984348,-0.263779,-0.700198,-0.447175,-0.090432,-0.465662,-0.880330,0.024743,-0.045538,0.008656,-8.501478,-2.701779,-33.917877,,,,,,,
1504199780.136221,-0.106889,0.481750,-1.989610,-0.324633,-0.694387,-0.430213,-0.094543,-0.463331,-0.881128,0.022247,-0.025286,0.007974,-8.501478,-2.701779,-33.917877,,,,,,,
1504199780.146230,-0.111325,0.478777,-1.994632,-0.346973,-0.667594,-0.400411,-0.098603,-0.460694,-0.882065,0.016328,-0.020446,0.011414,-9.025419,-3.079297,-33.841309,,,,,,,
1504199780.156240,-0.115642,0.475857,-1.999039,-0.327681,-0.618798,-0.339622,-0.102565,-0.458101,-0.882963,0.006145,-0.027693,0.010466,-9.025419,-3.079297,-33.841309,,,,,,,
1504199780.166250,-0.119680,0.473281,-2.002607,-0.280539,-0.548932,-0.267080,-0.106270,-0.455809,-0.883711,-0.004097,-0.039583,0.009291,-9.401014,-2.706433,-33.620056,,,,,,,
1504199780.176260,-0.123528,0.471824,-2.005318,-0.247066,-0.464024,-0.210597,-0.109752,-0.454512,-0.883953,-0.008290,-0.045641,0.005505,-9.401014,-2.706433,-33.620056,,,,,,,
1504199780.186270,-0.126293,0.469616,-2.007803,-0.247449,-0.363879,-0.187291,-0.112322,-0.452543,-0.884640,-0.007505,-0.044756,-0.000904,-9.851011,-2.708447,-33.621185,,,,,,,
1504199780.196279,-0.128127,0.467335,-2.010117,-0.252068,-0.263692,-0.170397,-0.114076,-0.450508,-0.885454,-0.007827,-0.032829,-0.002165,-9.851011,-2.708447,-33.621185,,,,,,,
1504199780.206289,-0.129231,0.465222,-2.012090,-0.222737,-0.177654,-0.137409,-0.115175,-0.448622,-0.886269,-0.005751,-0.030718,0.000146,-9.926008,-2.708783,-33.621368,,,,,,,
1504199780.216299,-0.129886,0.463487,-2.013557,-0.175536,-0.121606,-0.098999,-0.115856,-0.447070,-0.886964,-0.001453,-0.038404,0.006242,-9.926008,-2.708783,-33.621368,,,,,,,
1504199780.226309,-0.130480,0.464715,-2.014592,-0.117973,-0.108277,-0.065825,-0.116311,-0.448168,-0.886351,0.002633,-0.039595,0.010481,-10.150740,-2.635404,-33.322449,,,,,,,
1504199780.236318,-0.131392,0.464141,-2.015093,-0.044603,-0.115315,-0.027259,-0.117153,-0.447655,-0.886499,0.003308,-0.028404,0.006113,-10.150740,-2.635404,-33.322449,,,,,,,
1504199780.246328,-0.132293,0.465195,-2.015311,0.005275,-0.132809,-0.000453,-0.117891,-0.448597,-0.885925,0.006761,-0.018825,0.002486,-10.375822,-2.561566,-33.248596,,,,,,,
1504199780.256338,-0.133880,0.465423,-2.015300,0.025299,-0.167067,-0.005695,-0.119282,-0.448801,-0.885635,0.015751,-0.017065,-0.001847,-10.375822,-2.561566,-33.248596,,,,,,,
1504199780.266348,-0.133967,0.465636,-2.016376,0.000695,-0.197727,-0.039841,-0.119346,-0.448991,-0.885530,0.026497,-0.006285,-0.013091,-10.375669,-2.487012,-33.024170,,,,,,,
1504199780.276357,-0.135745,0.465332,-2.017361,-0.056877,-0.230223,-0.100726,-0.120939,-0.448719,-0.885452,0.040541,0.009876,-0.026459,-10.375669,-2.487012,-33.024170,,,,,,,
1504199780.286367,-0.137416,0.464409,-2.019390,-0.133550,-0.267860,-0.190454,-0.122476,-0.447895,-0.885658,0.050958,0.016803,-0.034447,-10.225035,-2.786191,-33.096527,,,,,,,
1504199780.296377,-0.139020,0.463033,-2.022588,-0.185720,-0.315280,-0.288662,-0.123981,-0.446664,-0.886070,0.053943,0.020074,-0.038139,-10.225035,-2.786191,-33.096527,,,,,,,
1504199780.306387,-0.137871,0.459750,-2.028066,-0.205961,-0.366155,-0.374008,-0.123164,-0.443724,-0.887660,0.046946,0.022230,-0.037343,-10.450300,-2.637341,-33.023224,,,,,,,
1504199780.316366,-0.139598,0.458286,-2.033038,-0.204860,-0.399136,-0.433722,-0.124787,-0.442411,-0.888088,0.035187,0.025816,-0.038838,-10.450300,-2.637341,-33.023224,,,,,,,
1504199780.326376,-0.141217,0.456995,-2.038369,-0.191865,-0.391756,-0.460398,-0.126305,-0.441253,-0.888450,0.015694,0.021164,-0.036721,-10.825590,-2.563886,-33.099670,,,,,,,
1504199780.336386,-0.142381,0.455894,-2.043754,-0.167954,-0.337606,-0.461520,-0.127408,-0.440265,-0.888782,-0.008456,-0.003094,-0.026318,-10.825590,-2.563886,-33.099670,,,,,,,
1504199780.346395,-0.143443,0.455598,-2.048603,-0.133048,-0.230291,-0.443500,-0.128370,-0.439999,-0.888775,-0.029894,-0.030902,-0.012622,-11.050398,-2.415631,-32.726379,,,,,,,
1504199780.356405,-0.142722,0.455334,-2.053406,-0.071407,-0.110414,-0.416920,-0.127746,-0.439762,-0.888983,-0.044022,-0.046185,-0.000986,-11.050398,-2.415631,-32.726379,,,,,,,
1504199780.366415,-0.141207,0.455626,-2.057951,-0.016419,-0.032024,-0.406289,-0.126381,-0.440024,-0.889048,-0.049079,-0.054238,-0.000860,-11.124159,-2.866132,-32.648193,,,,,,,
1504199780.376425,-0.139421,0.456145,-2.062449,-0.004593,-0.021464,-0.407354,-0.124761,-0.440490,-0.889046,-0.045848,-0.051484,-0.018424,-11.124159,-2.866132,-32.648193,,,,,,,
1504199780.386434,-0.139710,0.456972,-2.066246,-0.040296,-0.080854,-0.405173,-0.124968,-0.441233,-0.888649,-0.044268,-0.040258,-0.047066,-11.048857,-2.940946,-32.572418,,,,,,,
1504199780.396444,-0.139234,0.456663,-2.070796,-0.103023,-0.180514,-0.395499,-0.124563,-0.440955,-0.888843,-0.047068,-0.039086,-0.073330,-11.048857,-2.940946,-32.572418,,,,,,,
1504199780.406454,-0.139955,0.455592,-2.075283,-0.181952,-0.300294,-0.378347,-0.125269,-0.439994,-0.889220,-0.051855,-0.048608,-0.090882,-11.273298,-3.166959,-32.571289,,,,,,,
1504199780.416464,-0.141892,0.453869,-2.079601,-0.237333,-0.405359,-0.352640,-0.127099,-0.438446,-0.889725,-0.057288,-0.054260,-0.100845,-11.273298,-3.166959,-32.571289,,,,,,,
1504199780.426473,-0.144688,0.451716,-2.083540,-0.271095,-0.462671,-0.306699,-0.129722,-0.436510,-0.890298,-0.067742,-0.062163,-0.103506,-11.423857,-2.718366,-32.200012,,,,,,,
1504199780.436483,-0.147842,0.449218,-2.086988,-0.298001,-0.462498,-0.259780,-0.132690,-0.434261,-0.890961,-0.077500,-0.063602,-0.095505,-11.423857,-2.718366,-32.200012,,,,,,,
1504199780.446493,-0.150882,0.446377,-2.090062,-0.332024,-0.424959,-0.223613,-0.135582,-0.431700,-0.891769,-0.082939,-0.060686,-0.084259,-11.499083,-2.718411,-32.350220,,,,,,,
1504199780.456503,-0.153440,0.443120,-2.092832,-0.367927,-0.356502,-0.188572,-0.138077,-0.428761,-0.892804,-0.083786,-0.047695,-0.076419,-11.499083,-2.718411,-32.350220,,,,,,,
1504199780.466512,-0.156648,0.439493,-2.094746,-0.384573,-0.281810,-0.155642,-0.141182,-0.425481,-0.893887,-0.078132,-0.037318,-0.073047,-11.723860,-2.719724,-32.200745,,,,,,,
1504199780.476522,-0.158269,0.435927,-2.096886,-0.381239,-0.249895,-0.131142,-0.142869,-0.422251,-0.895150,-0.071822,-0.031027,-0.070961,-11.723860,-2.719724,-32.200745,,,,,,,
1504199780.486532,-0.160120,0.432529,-2.098952,-0.355893,-0.283137,-0.132107,-0.144754,-0.419168,-0.896295,-0.061697,-0.023138,-0.075293,-12.024122,-2.571225,-32.127625,,,,,,,
1504199780.496542,-0.162658,0.429747,-2.101024,-0.284986,-0.362563,-0.143586,-0.147216,-0.416641,-0.897072,-0.055436,0.001358,-0.082878,-12.024122,-2.571225,-32.127625,,,,,,,
1504199780.506552,-0.167730,0.425968,-2.102458,-0.165228,-0.472217,-0.160268,-0.152026,-0.413202,-0.897860,-0.054791,0.027506,-0.086454,-12.324034,-2.423169,-31.829498,,,,,,,
1504199780.516561,-0.172509,0.426081,-2.104320,0.037761,-0.578307,-0.170403,-0.156308,-0.413305,-0.897077,-0.057727,0.048361,-0.088550,-12.324034,-2.423169,-31.829498,,,,,,,
1504199780.526571,-0.178009,0.428580,-2.105785,0.286096,-0.615509,-0.177379,-0.161056,-0.415580,-0.895184,-0.059586,0.060386,-0.088916,-12.548582,-2.649030,-31.903351,,,,,,,
1504199780.536581,-0.183341,0.433527,-2.107012,0.524578,-0.565227,-0.208009,-0.165449,-0.420074,-0.892280,-0.060015,0.060943,-0.082649,-12.548582,-2.649030,-31.903351,,,,,,,
1504199780.546591,-0.187507,0.440364,-2.108157,0.718115,-0.404806,-0.249586,-0.168626,-0.426269,-0.888741,-0.063780,0.056197,-0.079674,-12.998274,-2.501950,-31.455597,,,,,,,
1504199780.556600,-0.189058,0.449005,-2.109403,0.859111,-0.138467,-0.282900,-0.169306,-0.434069,-0.884827,-0.067861,0.053133,-0.082382,-12.998274,-2.501950,-31.455597,,,,,,,
1504199780.566610,-0.187654,0.458664,-2.110901,0.936238,0.142257,-0.322756,-0.167273,-0.442751,-0.880904,-0.072687,0.021837,-0.076845,-12.846922,-2.951566,-31.301849,,,,,,,
1504199780.576620,-0.183583,0.468323,-2.112714,0.905154,0.381224,-0.339242,-0.162898,-0.451390,-0.877332,-0.091115,-0.009883,-0.088138,-12.846922,-2.951566,-31.301849,,,,,,,
1504199780.586630,-0.177702,0.477211,-2.114489,0.824093,0.541692,-0.301239,-0.157020,-0.459303,-0.874291,-0.111123,-0.029802,-0.118308,-12.695799,-3.400907,-31.298096,,,,,,,
1504199780.596639,-0.171219,0.485110,-2.115634,0.738794,0.605171,-0.210770,-0.150725,-0.466306,-0.871689,-0.137620,-0.074084,-0.144837,-12.695799,-3.400907,-31.298096,,,,,,,
1504199780.606649,-0.165354,0.492014,-2.115674,0.657897,0.572675,-0.087034,-0.145077,-0.472402,-0.869361,-0.158070,-0.118067,-0.170678,-12.543989,-4.075376,-31.217651,,,,,,,
1504199780.616628,-0.160956,0.497773,-2.114406,0.560360,0.469971,0.051741,-0.140813,-0.477470,-0.867291,-0.170390,-0.151864,-0.191989,-12.543989,-4.075376,-31.217651,,,,,,,
1504199780.626638,-0.158665,0.502306,-2.111712,0.460243,0.316132,0.198073,-0.138483,-0.481448,-0.865465,-0.179617,-0.168454,-0.206724,-11.868879,-4.296750,-31.514313,,,,,,,
1504199780.636648,-0.158732,0.505511,-2.107647,0.339790,0.147553,0.333721,-0.138297,-0.484254,-0.863928,-0.176965,-0.168196,-0.218683,-11.868879,-4.296750,-31.514313,,,,,,,
1504199780.646658,-0.160896,0.507211,-2.102426,0.205741,0.002547,0.452226,-0.140033,-0.485741,-0.862813,-0.165570,-0.172752,-0.221736,-11.943464,-4.372388,-31.363953,,,,,,,
1504199780.656667,-0.164486,0.507348,-2.096404,0.059538,-0.083713,0.534315,-0.143119,-0.485861,-0.862239,-0.144158,-0.175958,-0.217183,-11.943464,-4.372388,-31.363953,,,,,,,
1504199780.666677,-0.168568,0.505892,-2.090249,-0.090185,-0.114470,0.555458,-0.146757,-0.484588,-0.862344,-0.117419,-0.183259,-0.202689,-11.943205,-4.522229,-31.437805,,,,,,,
1504199780.676687,-0.172453,0.503232,-2.084603,-0.204151,-0.111365,0.521098,-0.150326,-0.482259,-0.863034,-0.087284,-0.173426,-0.190372,-11.943205,-4.522229,-31.437805,,,,,,,
1504199780.686697,-0.175736,0.499938,-2.079696,-0.258049,-0.082091,0.464381,-0.153435,-0.479371,-0.864095,-0.060981,-0.152953,-0.180292,-12.018309,-4.522428,-31.513000,,,,,,,
1504199780.696707,-0.178161,0.496570,-2.075613,-0.267991,-0.035049,0.393832,-0.155815,-0.476413,-0.865305,-0.038688,-0.138348,-0.165549,-12.018309,-4.522428,-31.513000,,,,,,,
1504199780.706716,-0.179618,0.493379,-2.072341,-0.259694,0.024629,0.323293,-0.157347,-0.473605,-0.866568,-0.024004,-0.135328,-0.146814,-12.092787,-4.598203,-31.287598,,,,,,,
1504199780.716726,-0.180027,0.490366,-2.069677,-0.250267,0.105589,0.274066,-0.157957,-0.470949,-0.867904,-0.016680,-0.135695,-0.129579,-12.092787,-4.598203,-31.287598,,,,,,,
1504199780.726736,-0.179330,0.487644,-2.067314,-0.221613,0.204479,0.249391,-0.157579,-0.468546,-0.869272,-0.015379,-0.143652,-0.109610,-12.168959,-4.223248,-31.440613,,,,,,,
1504199780.736746,-0.177665,0.485310,-2.065008,-0.183492,0.295817,0.239689,-0.156325,-0.466483,-0.870607,-0.015031,-0.154550,-0.093032,-12.168959,-4.223248,-31.440613,,,,,,,
1504199780.746755,-0.175253,0.483347,-2.062712,-0.149854,0.361615,0.232160,-0.154384,-0.464746,-0.871881,-0.012608,-0.152686,-0.082464,-11.868773,-4.296903,-31.439301,,,,,,,
1504199780.756765,-0.172374,0.481622,-2.060453,-0.131370,0.400896,0.225718,-0.152010,-0.463218,-0.873111,-0.006223,-0.140847,-0.076566,-11.868773,-4.296903,-31.439301,,,,,,,
1504199780.766775,-0.169253,0.480022,-2.058240,-0.121609,0.416807,0.219302,-0.149409,-0.461798,-0.874311,0.002543,-0.129739,-0.073580,-11.645170,-3.920285,-31.741577,,,,,,,
1504199780.776785,-0.165991,0.478577,-2.056038,-0.106549,0.429474,0.215037,-0.146667,-0.460516,-0.875451,0.013076,-0.123758,-0.067939,-11.645170,-3.920285,-31.741577,,,,,,,
1504199780.786794,-0.161442,0.479441,-2.054581,-0.113901,0.426359,0.189415,-0.142618,-0.461283,-0.875716,0.025598,-0.120946,-0.057710,-11.569868,-3.995099,-31.665833,,,,,,,
1504199780.796804,-0.158022,0.477904,-2.053153,-0.138383,0.398913,0.133916,-0.139734,-0.459919,-0.876897,0.041605,-0.098247,-0.051753,-11.569868,-3.995099,-31.665833,,,,,,,
1504199780.806814,-0.154648,0.476091,-2.052416,-0.180015,0.363081,0.080537,-0.136903,-0.458308,-0.878186,0.050172,-0.068334,-0.053012,-11.271376,-3.617993,-32.042908,,,,,,,
1504199780.816824,-0.151350,0.473805,-2.052200,-0.240899,0.333780,0.047394,-0.134163,-0.456276,-0.879666,0.053032,-0.045418,-0.051562,-11.271376,-3.617993,-32.042908,,,,,,,
1504199780.826823,-0.145034,0.471223,-2.053757,-0.324301,0.299330,0.031295,-0.128775,-0.453976,-0.881659,0.048987,-0.032779,-0.044900,-11.195951,-3.692960,-31.892151,,,,,,,
1504199780.836832,-0.142100,0.467179,-2.054161,-0.432282,0.265066,0.020494,-0.126446,-0.450370,-0.883843,0.045681,-0.023690,-0.038688,-11.195951,-3.692960,-31.892151,,,,,,,
1504199780.846842,-0.139501,0.462010,-2.054762,-0.546777,0.223385,0.020369,-0.124471,-0.445748,-0.886462,0.039998,-0.017173,-0.032834,-10.971479,-3.616498,-32.117157,,,,,,,
1504199780.856852,-0.137321,0.455705,-2.055537,-0.662400,0.172127,0.017057,-0.122920,-0.440096,-0.889498,0.035243,-0.018980,-0.020887,-10.971479,-3.616498,-32.117157,,,,,,,
1504199780.866862,-0.134593,0.448527,-2.056864,-0.776951,0.126181,0.022276,-0.120914,-0.433639,-0.892938,0.030262,-0.021760,-0.009177,-10.897764,-3.240720,-32.344788,,,,,,,
1504199780.876870,-0.133133,0.439905,-2.057901,-0.895640,0.093061,0.021061,-0.120102,-0.425854,-0.896785,0.027740,-0.011371,0.005413,-10.897764,-3.240720,-32.344788,,,,,,,
1504199780.886880,-0.131918,0.430100,-2.059139,-1.013248,0.060999,0.018779,-0.119556,-0.416962,-0.901027,0.025455,-0.000885,0.023326,-10.449095,-2.713696,-32.347626,,,,,,,
1504199780.896890,-0.131072,0.419319,-2.060342,-1.100047,0.026528,0.038970,-0.119374,-0.407138,-0.905532,0.021672,0.009845,0.038955,-10.449095,-2.713696,-32.347626,,,,,,,
1504199780.906900,-0.130723,0.408035,-2.061261,-1.133605,-0.012659,0.073138,-0.119650,-0.396806,-0.910071,0.016348,0.007906,0.060416,-10.751493,-1.889585,-32.579559,,,,,,,
1504199780.916879,-0.131054,0.396819,-2.061752,-1.106488,-0.067266,0.110640,-0.120525,-0.386486,-0.914386,0.006770,0.001919,0.084506,-10.751493,-1.889585,-32.579559,,,,,,,
1504199780.926889,-0.132164,0.386202,-2.061735,-1.028185,-0.123365,0.151436,-0.122074,-0.376673,-0.918268,-0.000759,0.007196,0.104532,-10.828413,-1.214627,-32.734833,,,,,,,
1504199780.936898,-0.133904,0.376689,-2.061172,-0.901694,-0.160674,0.186945,-0.124144,-0.367844,-0.921564,-0.001573,0.018539,0.120019,-10.828413,-1.214627,-32.734833,,,,,,,
1504199780.946908,-0.135943,0.368521,-2.060131,-0.759944,-0.165063,0.210682,-0.126425,-0.360236,-0.924255,0.001181,0.025489,0.137191,-10.454329,-0.763242,-32.587280,,,,,,,
1504199780.956918,-0.138015,0.361527,-2.058779,-0.651100,-0.156459,0.222604,-0.128684,-0.353703,-0.926464,0.004005,0.032383,0.153072,-10.454329,-0.763242,-32.587280,,,,,,,
1504199780.966928,-0.140023,0.355307,-2.057288,-0.579545,-0.146394,0.224845,-0.130849,-0.347879,-0.928364,0.007802,0.042428,0.158390,-10.754957,-0.688977,-32.888611,,,,,,,
1504199780.976938,-0.142038,0.349741,-2.055753,-0.514452,-0.149055,0.218559,-0.132991,-0.342654,-0.930001,0.010112,0.043475,0.155877,-10.754957,-0.688977,-32.888611,,,,,,,
1504199780.986948,-0.144156,0.344890,-2.054208,-0.438759,-0.162456,0.209107,-0.135198,-0.338093,-0.931351,0.012212,0.027440,0.154419,-11.056318,-0.015775,-32.669403,,,,,,,
1504199780.996958,-0.146371,0.341070,-2.052777,-0.329906,-0.177175,0.180501,-0.137448,-0.334496,-0.932320,0.019528,0.015999,0.151192,-11.056318,-0.015775,-32.669403,,,,,,,
1504199781.006968,-0.148597,0.338406,-2.051756,-0.223014,-0.192907,0.115603,-0.139654,-0.331984,-0.932890,0.028158,0.019896,0.142866,-11.056471,0.133929,-32.520538,,,,,,,
1504199781.016978,-0.150744,0.337007,-2.051510,-0.104253,-0.211899,0.018709,-0.141726,-0.330664,-0.933046,0.032626,0.044013,0.134462,-11.056471,0.133929,-32.520538,,,,,,,
1504199781.026987,-0.152615,0.336929,-2.052076,0.012592,-0.201044,-0.073972,-0.143475,-0.330590,-0.932805,0.029446,0.068398,0.123067,-11.132002,0.433291,-32.372955,,,,,,,
1504199781.036997,-0.153876,0.337930,-2.053215,0.102950,-0.146315,-0.133687,-0.144601,-0.331535,-0.932296,0.015405,0.069252,0.114730,-11.132002,0.433291,-32.372955,,,,,,,
1504199781.047007,-0.154343,0.339605,-2.054542,0.156978,-0.071085,-0.149737,-0.144951,-0.333114,-0.931678,-0.012413,0.047668,0.112403,-11.131437,0.208285,-32.371246,,,,,,,
1504199781.057017,-0.154061,0.341493,-2.055668,0.172439,0.009748,-0.125302,-0.144592,-0.334895,-0.931095,-0.044877,0.018076,0.109913,-11.131437,0.208285,-32.371246,,,,,,,
1504199781.067025,-0.153253,0.343244,-2.056166,0.160907,0.081161,-0.051797,-0.143749,-0.336544,-0.930631,-0.074162,-0.008931,0.103010,-11.281202,-0.016934,-32.594940,,,,,,,
1504199781.077035,-0.152325,0.344551,-2.055666,0.126491,0.113302,0.054827,-0.142819,-0.337774,-0.930329,-0.096042,-0.031946,0.093705,-11.281202,-0.016934,-32.594940,,,,,,,
1504199781.087045,-0.159833,0.349264,-2.051232,0.080674,0.074059,0.191465,-0.149545,-0.342206,-0.927648,-0.102424,-0.043673,0.077932,-11.280867,-0.017392,-32.369934,,,,,,,
1504199781.097055,-0.160838,0.349290,-2.048044,0.040857,-0.017396,0.327118,-0.150475,-0.342230,-0.927489,-0.100242,-0.048028,0.057021,-11.280867,-0.017392,-32.369934,,,,,,,
1504199781.107064,-0.163472,0.348844,-2.043795,0.014768,-0.152609,0.421242,-0.152942,-0.341812,-0.927240,-0.082516,-0.044846,0.039132,-10.981428,0.208957,-32.370880,,,,,,,
1504199781.117074,-0.167767,0.348095,-2.038998,-0.004783,-0.302743,0.464169,-0.156966,-0.341107,-0.926827,-0.054216,-0.027179,0.022575,-10.981428,0.208957,-32.370880,,,,,,,
1504199781.127084,-0.175095,0.347169,-2.033685,-0.010076,-0.440152,0.448394,-0.163808,-0.340237,-0.925962,-0.020335,0.001110,0.007246,-11.282179,0.507617,-32.373871,,,,,,,
1504199781.137094,-0.181618,0.346513,-2.029260,0.018316,-0.516003,0.410151,-0.169886,-0.339621,-0.925093,0.002359,0.025290,0.000288,-11.282179,0.507617,-32.373871,,,,,,,
1504199781.147104,-0.188238,0.346525,-2.025204,0.094260,-0.521907,0.362260,-0.176005,-0.339632,-0.923944,0.010387,0.040163,0.007883,-11.431623,0.506198,-31.999207,,,,,,,
1504199781.157114,-0.194590,0.347728,-2.021466,0.218450,-0.502627,0.308003,-0.181792,-0.340762,-0.922406,0.005660,0.047504,0.022702,-11.431623,0.506198,-31.999207,,,,,,,
1504199781.167124,-0.200984,0.350033,-2.017877,0.376758,-0.485759,0.253811,-0.187528,-0.342929,-0.920452,-0.004961,0.042209,0.034024,-11.656431,0.205920,-32.372559,,,,,,,
1504199781.177134,-0.206982,0.354743,-2.014263,0.585043,-0.469338,0.233862,-0.192712,-0.347350,-0.917720,-0.016608,0.033873,0.030788,-11.656431,0.205920,-32.372559,,,,,,,
1504199781.187144,-0.213064,0.361767,-2.010023,0.831566,-0.454332,0.246004,-0.197768,-0.353928,-0.914124,-0.023865,0.014160,0.024735,-11.880980,0.204318,-32.073090,,,,,,,
1504199781.197153,-0.219228,0.371164,-2.005015,1.077129,-0.426529,0.257055,-0.202668,-0.362701,-0.909601,-0.029846,-0.000916,0.013834,-11.880980,0.204318,-32.073090,,,,,,,
1504199781.207133,-0.225448,0.382608,-1.999222,1.268322,-0.388696,0.275465,-0.207380,-0.373342,-0.904218,-0.038180,-0.007564,-0.001971,-12.253752,-0.547818,-31.843384,,,,,,,
1504199781.217141,-0.231543,0.395004,-1.992846,1.355887,-0.363869,0.300124,-0.211809,-0.384812,-0.898364,-0.045576,-0.007553,-0.016492,-12.253752,-0.547818,-31.843384,,,,,,,
1504199781.227151,-0.237748,0.407606,-1.986164,1.370841,-0.359733,0.303344,-0.216219,-0.396413,-0.892248,-0.035337,0.020986,-0.048411,-12.777617,-1.000180,-31.841278,,,,,,,
1504199781.237161,-0.244141,0.420348,-1.979396,1.387885,-0.368389,0.294850,-0.220680,-0.408079,-0.885874,-0.023460,0.056012,-0.093924,-12.777617,-1.000180,-31.841278,,,,,,,
1504199781.247171,-0.250812,0.433306,-1.972640,1.419794,-0.397395,0.268271,-0.225254,-0.419874,-0.879185,-0.012081,0.076642,-0.139659,-12.925810,-1.676007,-31.761627,,,,,,,
1504199781.257180,-0.257944,0.446873,-1.966168,1.470865,-0.451036,0.210815,-0.230044,-0.432148,-0.871968,-0.003019,0.064594,-0.177867,-12.925810,-1.676007,-31.761627,,,,,,,
1504199781.267190,-0.265530,0.461081,-1.960141,1.524148,-0.506806,0.134152,-0.235016,-0.444916,-0.864186,-0.006317,0.034699,-0.210705,-13.223433,-2.577512,-31.680573,,,,,,,
1504199781.277200,-0.273489,0.476267,-1.954982,1.607427,-0.581947,0.002071,-0.240035,-0.458465,-0.855683,-0.010743,0.009078,-0.228057,-13.223433,-2.577512,-31.680573,,,,,,,
1504199781.287210,-0.281310,0.493015,-1.950620,1.761697,-0.578829,-0.119351,-0.244553,-0.473284,-0.846283,-0.011428,0.011523,-0.235351,-13.446547,-3.104276,-31.302185,,,,,,,
1504199781.297220,-0.288761,0.511948,-1.946493,1.972656,-0.534658,-0.203388,-0.248255,-0.489876,-0.835698,0.001811,-0.023811,-0.202358,-13.446547,-3.104276,-31.302185,,,,,,,
1504199781.307230,-0.295985,0.532801,-1.942035,2.134323,-0.480552,-0.228821,-0.251251,-0.507948,-0.823931,-0.002243,-0.052950,-0.165220,-13.592588,-4.455701,-30.917450,,,,,,,
1504199781.317240,-0.302739,0.553297,-1.936598,2.065334,-0.373526,-0.129861,-0.253653,-0.525495,-0.812105,-0.000498,-0.015917,-0.154448,-13.592588,-4.455701,-30.917450,,,,,,,
1504199781.327250,-0.309699,0.572056,-1.930234,1.903906,-0.353117,-0.033043,-0.256249,-0.541362,-0.800789,0.008889,-0.013982,-0.149040,-14.114119,-5.658658,-30.609711,,,,,,,
1504199781.337260,-0.316416,0.588775,-1.924163,1.691733,-0.337512,-0.037708,-0.258770,-0.555342,-0.790337,0.007381,0.040343,-0.220939,-14.114119,-5.658658,-30.609711,,,,,,,
1504199781.347269,-0.322782,0.603654,-1.919349,1.486888,-0.382634,-0.111634,-0.261145,-0.567655,-0.780751,0.000113,0.049115,-0.262813,-14.411222,-6.635602,-30.303101,,,,,,,
1504199781.357279,-0.329071,0.616878,-1.916370,1.278549,-0.486299,-0.220687,-0.263601,-0.578492,-0.771921,-0.000620,0.029816,-0.288687,-14.411222,-6.635602,-30.303101,,,,,,,
1504199781.367289,-0.335677,0.628609,-1.915204,1.096487,-0.629625,-0.313614,-0.266441,-0.588020,-0.763703,0.001670,0.042076,-0.319275,-14.483885,-7.610806,-30.370972,,,,,,,
1504199781.377299,-0.342999,0.639014,-1.915495,0.931243,-0.791226,-0.385131,-0.269953,-0.596404,-0.755928,-0.002889,0.055358,-0.330772,-14.483885,-7.610806,-30.370972,,,,,,,
1504199781.387307,-0.351590,0.648142,-1.917165,0.781422,-1.022224,-0.451162,-0.274551,-0.603706,-0.748439,-0.024094,0.049858,-0.314519,-14.931990,-8.138577,-29.993164,,,,,,,
1504199781.397317,-0.362374,0.656629,-1.919059,0.729380,-1.241339,-0.422046,-0.280780,-0.610450,-0.740617,-0.047391,0.007118,-0.277388,-14.931990,-8.138577,-29.993164,,,,,,,
1504199781.407327,-0.375469,0.664600,-1.920128,0.715820,-1.426713,-0.353429,-0.288660,-0.616744,-0.732327,-0.050284,0.002181,-0.254566,-15.229475,-8.741269,-29.314362,,,,,,,
1504199781.417337,-0.391549,0.672532,-1.920406,0.730737,-1.674092,-0.317743,-0.298521,-0.622969,-0.723046,-0.021761,0.000456,-0.223015,-15.229475,-8.741269,-29.314362,,,,,,,
1504199781.427346,-0.409594,0.680507,-1.920897,0.712065,-1.900866,-0.360071,-0.309531,-0.629188,-0.712961,-0.009271,-0.015054,-0.217627,-15.827696,-9.269559,-29.011932,,,,,,,
1504199781.437356,-0.430159,0.687905,-1.922294,0.599890,-2.220630,-0.415207,-0.322177,-0.634920,-0.702196,-0.010007,0.040956,-0.207289,-15.827696,-9.269559,-29.011932,,,,,,,
1504199781.447366,-0.453312,0.694676,-1.925023,0.497162,-2.579866,-0.502278,-0.336457,-0.640137,-0.690668,0.006363,0.088379,-0.224341,-16.800749,-9.725003,-28.485931,,,,,,,
1504199781.457376,-0.478820,0.701433,-1.929184,0.452561,-2.889473,-0.612819,-0.351962,-0.645313,-0.678007,0.018176,0.087833,-0.210649,-16.800749,-9.725003,-28.485931,,,,,,,
1504199781.467386,-0.506025,0.708370,-1.933950,0.439738,-3.051296,-0.654185,-0.368095,-0.650597,-0.664251,0.020271,0.087670,-0.172083,-17.697767,-10.330991,-27.508636,,,,,,,
1504199781.477396,-0.533813,0.715631,-1.938437,0.475909,-3.069700,-0.662629,-0.383996,-0.656094,-0.649683,0.043389,0.071942,-0.104711,-17.697767,-10.330991,-27.508636,,,,,,,
1504199781.487406,-0.560760,0.723193,-1.942404,0.486871,-2.884401,-0.638386,-0.398711,-0.661782,-0.634881,0.061782,0.089928,-0.045646,-19.120573,-10.714047,-26.684296,,,,,,,
1504199781.497385,-0.584037,0.730769,-1.946058,0.486996,-2.475200,-0.649782,-0.410603,-0.667443,-0.621229,0.051106,0.132225,0.000349,-19.120573,-10.714047,-26.684296,,,,,,,
1504199781.507395,-0.602319,0.738694,-1.950826,0.443131,-2.027169,-0.763792,-0.418881,-0.673323,-0.609241,0.054532,0.099104,0.093433,-20.391432,-11.472760,-25.181763,,,,,,,
1504199781.517405,-0.614544,0.746695,-1.956836,0.396573,-1.486457,-0.831006,-0.423178,-0.679217,-0.599654,0.029608,0.107851,0.130614,-20.391432,-11.472760,-25.181763,,,,,,,
1504199781.527415,-0.621240,0.755579,-1.963266,0.470321,-0.985086,-0.909682,-0.423655,-0.685710,-0.591877,0.040309,0.103694,0.184544,-21.289762,-11.778012,-24.581757,,,,,,,
1504199781.537424,-0.622170,0.765228,-1.967883,0.639295,-0.193795,-0.791236,-0.420329,-0.692702,-0.586078,0.020458,0.119017,0.202259,-21.289762,-11.778012,-24.581757,,,,,,,
1504199781.547434,-0.618477,0.775989,-1.967873,0.956554,0.526902,-0.567802,-0.413816,-0.700423,-0.581519,-0.032793,0.167677,0.233405,-21.437162,-12.454877,-23.977051,,,,,,,
1504199781.557444,-0.613616,0.788084,-1.963940,1.196171,0.816772,-0.441945,-0.406076,-0.709003,-0.576555,-0.089453,0.098240,0.320238,-21.437162,-12.454877,-23.977051,,,,,,,
1504199781.567453,-0.608748,0.800003,-1.956485,1.294096,1.085289,-0.178600,-0.398404,-0.717358,-0.571552,-0.163745,0.040554,0.248584,-21.061003,-13.052747,-24.196655,,,,,,,
1504199781.577462,-0.605180,0.810339,-1.945478,1.265413,1.141711,0.100910,-0.392123,-0.724521,-0.566841,-0.179609,0.024158,0.201088,-21.061003,-13.052747,-24.196655,,,,,,,
1504199781.587472,-0.604812,0.818497,-1.932309,1.154785,0.931386,0.339120,-0.388540,-0.730120,-0.562105,-0.173044,0.013781,0.152177,-20.534468,-13.799939,-24.414703,,,,,,,
1504199781.597482,-0.609090,0.824311,-1.917108,1.039920,0.592157,0.578617,-0.388506,-0.734080,-0.556946,-0.148557,0.015757,0.053727,-20.534468,-13.799939,-24.414703,,,,,,,
1504199781.607492,-0.619220,0.827911,-1.899606,0.961654,0.162047,0.821540,-0.392592,-0.736520,-0.550826,-0.115373,0.012704,0.012084,-20.157957,-14.398252,-24.409271,,,,,,,
1504199781.617501,-0.635953,0.829754,-1.879397,0.953607,-0.301660,1.050768,-0.400946,-0.737766,-0.543087,-0.087121,0.008380,-0.013630,-20.157957,-14.398252,-24.409271,,,,,,,
1504199781.627512,-0.659374,0.830551,-1.856859,0.989413,-0.806131,1.192617,-0.413195,-0.738303,-0.533084,-0.038221,-0.016809,-0.025113,-20.457960,-14.399610,-24.410004,,,,,,,
1504199781.637522,-0.688287,0.831021,-1.833459,1.029413,-1.274259,1.193512,-0.428212,-0.738620,-0.520648,0.032994,-0.030255,-0.045758,-20.457960,-14.399610,-24.410004,,,,,,,
1504199781.647532,-0.719902,0.831851,-1.810897,1.050267,-1.548157,1.065943,-0.444052,-0.739180,-0.506391,0.104391,0.002623,-0.068881,-21.206221,-14.554776,-23.510712,,,,,,,
1504199781.657541,-0.751033,0.833342,-1.790266,1.033880,-1.577667,0.881306,-0.458846,-0.740182,-0.491518,0.146880,0.037195,-0.062727,-21.206221,-14.554776,-23.510712,,,,,,,
1504199781.667551,-0.778864,0.835441,-1.772141,0.975689,-1.374515,0.680175,-0.471253,-0.741593,-0.477452,0.152238,0.077790,-0.039714,-21.879637,-14.784146,-22.835693,,,,,,,
1504199781.677561,-0.801156,0.838186,-1.757008,0.891161,-1.005961,0.462696,-0.480315,-0.743431,-0.465411,0.137892,0.106209,-0.010129,-21.879637,-14.784146,-22.835693,,,,,,,
1504199781.687571,-0.817154,0.841927,-1.745146,0.812191,-0.626768,0.217455,-0.485667,-0.745928,-0.455762,0.114177,0.116655,0.022397,-22.927824,-15.015515,-22.011566,,,,,,,
1504199781.697581,-0.827477,0.846404,-1.735532,0.760834,-0.198893,0.075715,-0.487883,-0.748902,-0.448460,0.085997,0.119691,0.045002,-22.927824,-15.015515,-22.011566,,,,,,,
1504199781.707589,-0.832801,0.851454,-1.727399,0.727881,0.146750,-0.037029,-0.487459,-0.752239,-0.443305,0.070055,0.103267,0.076469,-23.452253,-15.018628,-21.637848,,,,,,,
1504199781.717599,-0.834662,0.856806,-1.720672,0.675726,0.380627,-0.115452,-0.485293,-0.755755,-0.439688,0.061984,0.074419,0.105627,-23.452253,-15.018628,-21.637848,,,,,,,
1504199781.727609,-0.834407,0.862427,-1.714796,0.656538,0.484202,-0.166904,-0.482026,-0.759424,-0.436951,0.055054,0.049173,0.101121,-23.225523,-15.617917,-21.482788,,,,,,,
1504199781.737619,-0.833087,0.867991,-1.709411,0.627303,0.554788,-0.182022,-0.478314,-0.763032,-0.434739,0.058911,0.038804,0.106598,-23.225523,-15.617917,-21.482788,,,,,,,
1504199781.747628,-0.832335,0.873716,-1.703775,0.644895,0.497082,-0.164812,-0.474749,-0.766720,-0.432151,0.058870,0.008618,0.105368,-23.000074,-15.841763,-21.555573,,,,,,,
1504199781.757638,-0.832281,0.879128,-1.697410,0.675443,0.481856,-0.110294,-0.471650,-0.770183,-0.429377,0.048112,-0.008870,0.087656,-23.000074,-15.841763,-21.555573,,,,,,,
1504199781.767648,-0.833949,0.884152,-1.689983,0.687009,0.378312,-0.027902,-0.469494,-0.773378,-0.425984,0.043896,-0.044814,0.085285,-22.923780,-16.441128,-21.700867,,,,,,,
1504199781.777658,-0.837708,0.888231,-1.681387,0.669429,0.255788,0.091833,-0.468744,-0.775957,-0.422101,0.042139,-0.076612,0.059049,-22.923780,-16.441128,-21.700867,,,,,,,
1504199781.787668,-0.843613,0.892376,-1.672002,0.623846,0.094076,0.203048,-0.468822,-0.778565,-0.417184,0.035747,-0.053192,0.023797,-22.772993,-16.665752,-21.548828,,,,,,,
1504199781.797647,-0.851099,0.893872,-1.662486,0.517723,-0.036227,0.307699,-0.471055,-0.779503,-0.412895,0.040284,-0.025200,-0.003746,-22.772993,-16.665752,-21.548828,,,,,,,
1504199781.807657,-0.859592,0.893746,-1.653353,0.390218,-0.172747,0.411257,-0.474619,-0.779424,-0.408944,0.053156,-0.010066,-0.013099,-22.771559,-17.190899,-21.469849,,,,,,,
1504199781.817667,-0.868665,0.891884,-1.644812,0.251390,-0.260152,0.510439,-0.479417,-0.778256,-0.405557,0.075074,0.008908,-0.010046,-22.771559,-17.190899,-21.469849,,,,,,,
1504199781.827672,-0.876434,0.889970,-1.638436,0.146791,-0.375475,0.548883,-0.483697,-0.777053,-0.402773,0.105096,0.011275,0.013125,-23.221220,-17.193371,-21.245972,,,,,,,
1504199781.837682,-0.886358,0.886606,-1.631504,0.124734,-0.476507,0.530878,-0.489693,-0.774931,-0.399604,0.137962,0.003935,0.049887,-23.221220,-17.193371,-21.245972,,,,,,,
1504199781.847692,-0.897175,0.883823,-1.624322,0.204420,-0.544252,0.489506,-0.495670,-0.773169,-0.395627,0.174366,-0.009225,0.088803,-23.220701,-17.268826,-21.020386,,,,,,,
1504199781.857701,-0.909386,0.882220,-1.616412,0.325736,-0.629358,0.416216,-0.501442,-0.772151,-0.390306,0.207161,-0.019170,0.124544,-23.220701,-17.268826,-21.020386,,,,,,,
1504199781.867711,-0.922881,0.881983,-1.607892,0.442910,-0.710148,0.324765,-0.506809,-0.772001,-0.383614,0.234669,-0.012606,0.130135,-23.746000,-16.971783,-20.723938,,,,,,,
1504199781.877721,-0.937438,0.882992,-1.598896,0.539892,-0.776925,0.239659,-0.511711,-0.772642,-0.375735,0.254936,0.003202,0.119845,-23.746000,-16.971783,-20.723938,,,,,,,
1504199781.887731,-0.952374,0.884926,-1.589886,0.581745,-0.798495,0.156512,-0.516047,-0.773868,-0.367183,0.270717,0.012485,0.098552,-23.820387,-16.898159,-20.199677,,,,,,,
1504199781.897740,-0.966852,0.887482,-1.581552,0.573585,-0.804733,0.071116,-0.519679,-0.775484,-0.358549,0.280910,0.018877,0.081663,-23.820387,-16.898159,-20.199677,,,,,,,
1504199781.907750,-0.980789,0.890553,-1.574349,0.536393,-0.843757,-0.021743,-0.522644,-0.777420,-0.349945,0.294205,0.026230,0.072037,-24.268843,-17.201229,-19.673523,,,,,,,
1504199781.917760,-0.993967,0.894127,-1.568578,0.485405,-0.879461,-0.124239,-0.524878,-0.779663,-0.341510,0.307288,0.048294,0.054645,-24.268843,-17.201229,-19.673523,,,,,,,
1504199781.927770,-1.006963,0.898270,-1.564267,0.438064,-0.996175,-0.231923,-0.526537,-0.782250,-0.332931,0.324908,0.076058,0.052184,-24.643049,-17.203960,-19.149414,,,,,,,
1504199781.937779,-1.020329,0.903351,-1.561744,0.386111,-1.188455,-0.391784,-0.527545,-0.785406,-0.323780,0.355411,0.082647,0.054157,-24.643049,-17.203960,-19.149414,,,,,,,
1504199781.947789,-1.033434,0.909695,-1.561890,0.297234,-1.356939,-0.597650,-0.527452,-0.789317,-0.314283,0.375505,0.065180,0.056790,-24.716139,-17.655346,-18.621216,,,,,,,
1504199781.957799,-1.045401,0.917384,-1.564440,0.255159,-1.405474,-0.795100,-0.525909,-0.794014,-0.304895,0.380798,0.025216,0.078027,-24.716139,-17.655346,-18.621216,,,,,,,
1504199781.967809,-1.058073,0.927304,-1.568051,0.316715,-1.591154,-1.027359,-0.522841,-0.800005,-0.294328,0.385573,0.025286,0.109758,-24.714216,-17.882137,-17.719543,,,,,,,
1504199781.977818,-1.069488,0.938498,-1.572191,0.316463,-1.381186,-1.068291,-0.518280,-0.806671,-0.284019,0.349930,0.067139,0.094093,-24.714216,-17.882137,-17.719543,,,,,,,
1504199781.987828,-1.077331,0.946709,-1.575051,0.200234,-0.876582,-0.701129,-0.514641,-0.811497,-0.276799,0.243965,0.015919,0.144581,-25.160551,-18.711254,-16.664398,,,,,,,
1504199781.997838,-1.080400,0.950737,-1.578229,-0.034086,-0.481796,-0.363865,-0.512600,-0.813844,-0.273676,-0.132083,-0.163375,0.116511,-25.160551,-18.711254,-16.664398,,,,,,,
1504199782.007848,-1.078774,0.951515,-1.583744,-0.306118,-0.233586,-0.187585,-0.511597,-0.814296,-0.274210,-0.340301,-0.157201,-0.063284,-24.858641,-19.160961,-16.135284,,,,,,,
1504199782.017858,-1.074741,0.951095,-1.590751,-0.395280,-0.154033,-0.152655,-0.510787,-0.814052,-0.276434,-0.289582,-0.046055,-0.204584,-24.858641,-19.160961,-16.135284,,,,,,,
1504199782.027867,-1.068820,0.950455,-1.599655,-0.518548,-0.130576,-0.214820,-0.509598,-0.813680,-0.279704,-0.145126,0.050695,-0.221013,-24.933485,-19.086742,-15.911041,,,,,,,
1504199782.037877,-1.060724,0.950431,-1.611288,-0.610670,-0.139247,-0.369737,-0.507334,-0.813666,-0.283830,-0.024282,0.098884,-0.156264,-24.933485,-19.086742,-15.911041,,,,,,,
1504199782.047887,-1.050959,0.951900,-1.625488,-0.645260,-0.201599,-0.593842,-0.503500,-0.814519,-0.288177,0.112631,0.128332,-0.099549,-24.933226,-19.236599,-15.984924,,,,,,,
1504199782.057897,-1.043816,0.956628,-1.638933,-0.338644,-0.456385,-0.869318,-0.498095,-0.817253,-0.289825,0.236056,0.112877,-0.020462,-24.933226,-19.236599,-15.984924,,,,,,,
1504199782.067906,-1.041620,0.966174,-1.649364,0.053904,-0.686226,-1.220476,-0.490700,-0.822717,-0.286967,0.321313,0.071923,0.129786,-24.633421,-19.160244,-15.984741,,,,,,,
1504199782.077916,-1.041980,0.981329,-1.657965,0.458961,-0.749829,-1.674375,-0.479983,-0.831237,-0.280467,0.357516,0.018431,0.352031,-24.633421,-19.160244,-15.984741,,,,,,,
1504199782.087895,-1.043402,1.003877,-1.663795,0.971663,-0.623472,-2.228759,-0.464064,-0.843559,-0.270281,0.310683,-0.055641,0.366076,-24.107069,-19.608196,-15.830048,,,,,,,
1504199782.097905,-1.047156,1.030340,-1.663331,1.444370,-0.241577,-2.269174,-0.445583,-0.857474,-0.257282,0.178523,-0.379800,0.355991,-24.107069,-19.608196,-15.830048,,,,,,,
1504199782.107915,-1.052966,1.056659,-1.659689,1.445609,-0.263050,-2.123967,-0.427308,-0.870717,-0.243431,0.019731,-0.335337,0.220467,-23.427732,-20.881649,-15.068817,,,,,,,
1504199782.117925,-1.058283,1.079955,-1.656200,1.231219,-0.224262,-1.860759,-0.410804,-0.881937,-0.231144,-0.206002,-0.081442,-0.029491,-23.427732,-20.881649,-15.068817,,,,,,,
1504199782.127934,-1.063126,1.099042,-1.655559,0.864611,-0.526303,-1.572663,-0.397135,-0.890772,-0.220928,-0.240912,-0.107641,-0.198094,-22.673872,-21.929928,-14.234039,,,,,,,
1504199782.137944,-1.071112,1.113822,-1.656405,0.625492,-0.988238,-1.217885,-0.387287,-0.897391,-0.211417,-0.234615,-0.093621,-0.300851,-22.673872,-21.929928,-14.234039,,,,,,,
1504199782.147954,-1.082383,1.125247,-1.657350,0.468412,-1.271704,-0.981762,-0.380565,-0.902374,-0.202214,-0.302693,-0.076813,-0.287242,-22.145323,-22.978771,-13.624847,,,,,,,
1504199782.157964,-1.093339,1.136046,-1.659920,0.390348,-1.326418,-1.034103,-0.374082,-0.906975,-0.193544,-0.160281,0.051964,-0.192107,-22.145323,-22.978771,-13.624847,,,,,,,
1504199782.167974,-1.099988,1.148191,-1.665469,0.339892,-1.091359,-1.237411,-0.365516,-0.912023,-0.186042,0.040824,0.175497,-0.056878,-21.918409,-23.204556,-12.722626,,,,,,,
1504199782.177983,-1.100565,1.162213,-1.673156,0.364797,-0.636346,-1.437775,-0.354187,-0.917685,-0.180018,0.093643,0.181860,0.082575,-21.918409,-23.204556,-12.722626,,,,,,,
1504199782.187993,-1.093738,1.178358,-1.682889,0.393891,-0.075842,-1.667137,-0.339742,-0.923979,-0.175605,0.045812,0.193541,0.196540,-21.316267,-23.653210,-12.042755,,,,,,,
1504199782.198003,-1.077725,1.196248,-1.697333,0.351607,0.373348,-1.882550,-0.322273,-0.930673,-0.173170,-0.042504,0.222742,0.302213,-21.316267,-23.653210,-12.042755,,,,,,,
1504199782.208013,-1.053455,1.215772,-1.716933,0.321223,0.693528,-2.123333,-0.302124,-0.937638,-0.171920,-0.101853,0.201386,0.241866,-20.564314,-24.250439,-11.736389,,,,,,,
1504199782.218022,-1.018576,1.237191,-1.746790,0.188579,0.731161,-2.422502,-0.278780,-0.944868,-0.171774,-0.103987,0.168180,0.174673,-20.564314,-24.250439,-11.736389,,,,,,,
1504199782.228032,-0.970890,1.259811,-1.790978,0.045713,0.557890,-2.721316,-0.252566,-0.952033,-0.172755,-0.006910,0.193396,0.065074,-19.437361,-25.070232,-11.802429,,,,,,,
1504199782.238042,-0.911694,1.282565,-1.847412,-0.038425,0.500103,-2.844111,-0.224717,-0.958748,-0.174081,0.018632,0.058236,-0.012870,-19.437361,-25.070232,-11.802429,,,,,,,
1504199782.248052,-0.838063,1.304945,-1.917326,-0.033223,0.673881,-2.967160,-0.195301,-0.964869,-0.175742,-0.032971,0.065867,0.046347,-17.784895,-26.187374,-12.014923,,,,,,,
1504199782.258061,-0.747568,1.327847,-2.001850,0.153371,0.926179,-3.180762,-0.163551,-0.970633,-0.176418,-0.078072,0.085730,0.156398,-17.784895,-26.187374,-12.014923,,,,,,,
1504199782.268071,-0.647834,1.352539,-2.094205,0.543361,0.994359,-3.182340,-0.130666,-0.976276,-0.172658,-0.005701,-0.001217,0.216558,-15.608000,-27.077145,-12.227814,,,,,,,
1504199782.278081,-0.545308,1.378870,-2.190149,1.043543,0.784429,-3.046608,-0.098938,-0.981639,-0.163085,-0.032562,-0.014913,0.162627,-15.608000,-27.077145,-12.227814,,,,,,,
1504199782.288091,-0.438709,1.403995,-2.296050,1.370765,-0.003925,-2.745778,-0.070524,-0.986121,-0.150306,-0.093721,-0.044824,0.042228,-13.880949,-27.894390,-12.217346,,,,,,,
1504199782.298100,-0.332981,1.426531,-2.410085,1.441727,-0.922349,-2.400332,-0.046992,-0.989612,-0.135869,-0.154623,-0.014386,-0.227870,-13.880949,-27.894390,-12.217346,,,,,,,
1504199782.308110,-0.229381,1.446439,-2.530304,1.461018,-1.695541,-1.944222,-0.028203,-0.992278,-0.120789,-0.189860,-0.024355,-0.400162,-12.227385,-28.863476,-11.455963,,,,,,,
1504199782.318120,-0.190898,1.462923,-2.584293,1.490442,-1.565073,-0.573856,-0.020428,-0.994187,-0.105708,-0.051959,-0.020537,-0.426305,-12.227385,-28.863476,-11.455963,,,,,,,
1504199782.328130,-0.234541,1.478119,-2.557160,1.547904,-1.638584,-0.018578,-0.021507,-0.995709,-0.090011,-0.270684,-0.312443,-0.172975,-11.099043,-29.386120,-10.099213,,,,,,,
1504199782.338140,-0.256873,1.492238,-2.558965,1.180207,-2.739999,-0.579794,-0.019938,-0.996916,-0.075902,-0.025884,-0.386522,-0.119837,-11.099043,-29.386120,-10.099213,,,,,,,
1504199782.348149,-0.189095,1.502240,-2.649191,0.798623,-2.075877,-0.876229,-0.012877,-0.997651,-0.067282,0.238112,0.481416,-0.476389,-10.796598,-29.687008,-8.971191,,,,,,,
1504199782.358159,-0.054873,1.511580,-2.797876,0.820499,-1.078426,-1.097835,-0.003246,-0.998247,-0.059093,0.071590,0.650423,-0.226247,-10.796598,-29.687008,-8.971191,,,,,,,
1504199782.368169,0.172600,1.520894,-3.028379,1.081892,-0.093696,-1.230409,0.008567,-0.998755,-0.049141,-0.030601,-0.166177,0.324058,-10.718580,-30.213924,-7.842072,,,,,,,
1504199782.378179,0.518768,1.528262,2.911668,1.233155,0.539097,-1.237667,0.021082,-0.999096,-0.036927,-0.005702,-0.208058,0.444809,-10.718580,-30.213924,-7.842072,,,,,,,
1504199782.388158,0.938875,1.529242,2.499659,1.175621,0.832584,-1.211599,0.033521,-0.999137,-0.024539,-0.198819,-0.029977,0.242099,-9.966322,-30.662045,-7.086792,,,,,,,
1504199782.398168,1.252704,1.524134,2.193333,0.876166,0.749569,-0.987818,0.044305,-0.998911,-0.014589,-0.283395,-0.052923,0.161714,-9.966322,-30.662045,-7.086792,,,,,,,
1504199782.408177,1.413869,1.517077,2.039239,0.527334,0.710738,-0.847456,0.053034,-0.998557,-0.008391,-0.337702,-0.187981,0.021209,-8.841002,-30.433178,-6.485718,,,,,,,
1504199782.418187,1.480527,1.509539,1.977954,0.185160,0.522748,-0.783674,0.060970,-0.998124,-0.005519,-0.249431,-0.210402,0.076793,-8.841002,-30.433178,-6.485718,,,,,,,
1504199782.428197,1.499647,1.502737,1.965717,-0.035940,0.717290,-0.637098,0.067835,-0.997685,-0.004835,-0.149942,-0.207256,0.113203,-7.864393,-30.804699,-6.030487,,,,,,,
1504199782.438207,1.498206,1.497366,1.977261,-0.148846,1.094233,-0.499196,0.073171,-0.997305,-0.005321,-0.201787,-0.156778,0.149669,-7.864393,-30.804699,-6.030487,,,,,,,
1504199782.448216,1.499313,1.493964,1.989311,-0.075287,1.365113,-0.266853,0.076561,-0.997050,-0.005482,-0.245979,-0.124654,0.142994,-7.789579,-30.729366,-6.030853,,,,,,,
1504199782.458226,1.529556,1.493511,1.972137,0.192025,1.213434,0.016739,0.077143,-0.997015,-0.003183,-0.220515,-0.176539,0.146448,-7.789579,-30.729366,-6.030853,,,,,,,
1504199782.468236,1.579214,1.495204,1.931501,0.342681,0.820927,0.200218,0.075517,-0.997144,0.000636,-0.170152,-0.149020,0.022451,-7.264357,-30.951550,-6.252869,,,,,,,
1504199782.478246,1.635817,1.497750,1.881614,0.358081,0.659815,0.277382,0.072827,-0.997333,0.004742,-0.073895,-0.114498,-0.154339,-7.264357,-30.951550,-6.252869,,,,,,,
1504199782.488255,1.695878,1.500961,1.828527,0.345194,0.731180,0.408524,0.069233,-0.997563,0.008705,-0.010792,-0.110348,-0.186653,-7.339918,-30.726894,-6.254761,,,,,,,
1504199782.498265,1.769117,1.504348,1.761557,0.413772,0.621945,0.388555,0.065098,-0.997793,0.013082,0.019558,-0.197657,-0.101629,-7.339918,-30.726894,-6.254761,,,,,,,
1504199782.508275,1.861154,1.506052,1.674933,0.538435,0.530459,0.275788,0.061991,-0.997905,0.018523,0.072561,-0.148168,-0.036650,-7.339247,-30.727795,-5.804749,,,,,,,
1504199782.518285,1.960021,1.506485,1.580292,0.561233,0.419493,0.233327,0.059460,-0.997933,0.024387,0.055759,-0.064323,0.016247,-7.339247,-30.727795,-5.804749,,,,,,,
1504199782.528295,2.057067,1.505715,1.487148,0.592397,0.405454,0.166160,0.057497,-0.997883,0.030393,0.057020,-0.167248,0.040713,-7.488935,-30.803616,-5.729553,,,,,,,
1504199782.538304,2.144574,1.503451,1.402854,0.581394,0.292709,0.052127,0.056517,-0.997733,0.036528,0.081834,-0.151544,0.047777,-7.488935,-30.803616,-5.729553,,,,,,,
1504199782.548314,2.207145,1.500630,1.341892,0.489766,0.145396,0.004195,0.056386,-0.997539,0.041663,0.105540,-0.149708,0.020914,-7.788221,-30.731152,-5.130829,,,,,,,
1504199782.558324,2.265636,1.497573,1.284034,0.529489,0.048090,0.012975,0.056197,-0.997320,0.046840,0.125444,-0.186136,-0.014873,-7.788221,-30.731152,-5.130829,,,,,,,
1504199782.568334,2.317015,1.493923,1.231554,0.535604,-0.143731,-0.022968,0.056389,-0.997047,0.052135,0.158836,-0.196435,-0.001934,-7.638075,-30.655926,-4.906036,,,,,,,
1504199782.578343,2.346077,1.490792,1.198345,0.391507,-0.444066,-0.064317,0.057080,-0.996801,0.055937,0.153064,-0.168131,-0.048704,-7.638075,-30.655926,-4.906036,,,,,,,
1504199782.588353,2.381678,1.485164,1.159438,0.722401,-0.246313,-0.203922,0.058916,-0.996336,0.061998,0.150266,-0.169787,-0.029696,-7.712812,-30.581875,-4.606781,,,,,,,
1504199782.598363,2.424853,1.476849,1.115090,0.902224,-0.085748,-0.276477,0.061626,-0.995590,0.070728,0.108372,-0.112686,0.073788,-7.712812,-30.581875,-4.606781,,,,,,,
1504199782.608373,2.450194,1.469341,1.087402,0.663841,-0.277721,-0.278686,0.064579,-0.994858,0.078023,0.089489,-0.033707,0.015453,-7.561567,-30.807095,-4.154694,,,,,,,
1504199782.618382,2.450289,1.464107,1.083326,0.370566,-0.415929,-0.313107,0.067890,-0.994314,0.082039,0.128201,-0.009317,-0.138024,-7.561567,-30.807095,-4.154694,,,,,,,
1504199782.628392,2.439001,1.459543,1.091568,0.282559,-0.253167,-0.376524,0.071744,-0.993818,0.084731,0.084354,0.007169,-0.132216,-7.636152,-30.658474,-3.631012,,,,,,,
1504199782.638402,2.426066,1.454980,1.103799,0.254623,-0.028066,-0.404721,0.075808,-0.993301,0.087217,-0.004046,-0.034989,-0.003523,-7.636152,-30.658474,-3.631012,,,,,,,
1504199782.648412,2.410473,1.450836,1.119256,0.143560,-0.044195,-0.410223,0.079906,-0.992813,0.089087,-0.015727,-0.028289,-0.002646,-7.336149,-30.657116,-3.630249,,,,,,,
1504199782.658422,2.385965,1.448269,1.142933,-0.059831,-0.106493,-0.375241,0.083812,-0.992503,0.088957,0.001744,-0.033376,-0.133269,-7.336149,-30.657116,-3.630249,,,,,,,
1504199782.668431,2.355496,1.446232,1.173013,-0.117690,-0.035633,-0.426701,0.087914,-0.992252,0.087791,0.016716,-0.082058,-0.193138,-7.035704,-30.656368,-3.329529,,,,,,,
1504199782.678411,2.321351,1.443819,1.208272,-0.161990,0.117187,-0.498564,0.092610,-0.991949,0.086371,-0.002416,-0.057794,-0.135642,-7.035704,-30.656368,-3.329529,,,,,,,
1504199782.688420,2.283935,1.441432,1.247868,-0.233789,0.196658,-0.522311,0.097567,-0.991644,0.084396,-0.041171,-0.043192,-0.080520,-6.885405,-30.955105,-3.626892,,,,,,,
1504199782.698430,2.226777,1.440089,1.305669,-0.482219,0.050641,-0.575854,0.103285,-0.991470,0.079497,-0.036146,-0.071091,-0.091200,-6.885405,-30.955105,-3.626892,,,,,,,
1504199782.708440,2.178974,1.437700,1.357036,-0.360833,0.413023,-0.588024,0.108908,-0.991156,0.075823,-0.056708,-0.025125,-0.102190,-6.661161,-30.654079,-3.628601,,,,,,,
1504199782.718450,2.150685,1.434307,1.391812,-0.136288,0.648734,-0.521872,0.113823,-0.990700,0.074555,-0.051735,-0.024681,-0.006012,-6.661161,-30.654079,-3.628601,,,,,,,
1504199782.728459,2.140399,1.430169,1.407956,0.093965,0.531682,-0.454020,0.118035,-0.990128,0.075590,-0.045678,-0.052108,-0.052290,-6.287107,-30.501644,-4.003784,,,,,,,
1504199782.738469,2.142573,1.425035,1.410255,0.294789,0.427732,-0.454556,0.122143,-0.989396,0.078597,-0.030041,-0.033187,-0.163481,-6.287107,-30.501644,-4.003784,,,,,,,
1504199782.748479,2.150213,1.418949,1.406728,0.395114,0.406701,-0.494906,0.126575,-0.988493,0.082823,-0.043644,0.026579,-0.181287,-5.986052,-30.875454,-3.925262,,,,,,,
1504199782.758489,2.157057,1.412357,1.404018,0.393273,0.420607,-0.531226,0.131431,-0.987475,0.087290,-0.065452,0.009798,-0.124445,-5.986052,-30.875454,-3.925262,,,,,,,
1504199782.768498,2.161525,1.405979,1.403737,0.339850,0.415711,-0.523838,0.136267,-0.986448,0.091382,-0.062232,-0.043367,-0.085584,-5.760038,-31.100048,-3.622986,,,,,,,
1504199782.778508,2.160989,1.400249,1.408244,0.226435,0.380407,-0.516500,0.141011,-0.985492,0.094454,-0.040990,-0.071500,-0.039293,-5.760038,-31.100048,-3.622986,,,,,,,
1504199782.788518,2.153919,1.395358,1.418801,0.081817,0.317646,-0.500629,0.145697,-0.984650,0.096108,-0.015646,-0.061721,0.000328,-5.009443,-31.246975,-3.470032,,,,,,,
1504199782.798528,2.138294,1.391629,1.437366,-0.136491,0.243773,-0.488068,0.150276,-0.983992,0.095792,-0.001640,-0.081254,0.035799,-5.009443,-31.246975,-3.470032,,,,,,,
1504199782.808537,2.109820,1.389769,1.467935,-0.451418,0.121636,-0.433961,0.154512,-0.983659,0.092414,-0.001344,-0.083846,0.061028,-4.709669,-31.245327,-3.619293,,,,,,,
1504199782.818547,2.063969,1.389427,1.514655,-0.796051,-0.021499,-0.447115,0.158882,-0.983598,0.085394,0.019600,-0.028472,0.087030,-4.709669,-31.245327,-3.619293,,,,,,,
1504199782.828526,2.006131,1.389808,1.572914,-0.990556,-0.051882,-0.431387,0.163213,-0.983666,0.075909,0.020655,0.029504,0.128116,-4.410154,-31.318081,-4.067993,,,,,,,
1504199782.838536,1.946801,1.389662,1.633314,-0.981246,0.032245,-0.451800,0.167561,-0.983640,0.066151,-0.017674,0.083127,0.182674,-4.410154,-31.318081,-4.067993,,,,,,,
1504199782.848546,1.891164,1.388374,1.690113,-0.897039,0.010259,-0.470829,0.172181,-0.983407,0.057129,-0.003602,0.137811,0.212448,-4.035841,-31.315502,-4.517090,,,,,,,
1504199782.858555,1.842497,1.386845,1.739043,-0.776566,-0.073951,-0.373338,0.176206,-0.983129,0.049089,-0.016202,0.129231,0.158430,-4.035841,-31.315502,-4.517090,,,,,,,
1504199782.868565,1.802620,1.385958,1.778483,-0.642094,-0.116760,-0.235334,0.178871,-0.982966,0.042226,-0.007149,0.073115,0.090922,-3.811750,-31.313290,-5.116516,,,,,,,
1504199782.878575,1.773903,1.385174,1.806899,-0.438136,-0.063082,-0.183840,0.180764,-0.982822,0.037228,0.054175,0.025806,0.064747,-3.811750,-31.313290,-5.116516,,,,,,,
1504199782.888585,1.758840,1.383503,1.822024,-0.180339,-0.009745,-0.231521,0.182918,-0.982512,0.034808,0.025792,0.025038,0.044019,-4.112562,-31.388287,-5.791718,,,,,,,
1504199782.898594,1.751913,1.381066,1.828522,-0.056943,-0.081048,-0.271743,0.185509,-0.982055,0.033971,-0.035164,0.039779,-0.000860,-4.112562,-31.388287,-5.791718,,,,,,,
1504199782.908604,1.743103,1.378348,1.836060,-0.111776,-0.148770,-0.296268,0.188430,-0.981539,0.032793,-0.035400,0.024904,-0.064028,-3.736784,-31.611904,-5.639099,,,,,,,
1504199782.918614,1.734712,1.375637,1.843832,-0.086451,-0.049878,-0.295331,0.191324,-0.981017,0.031645,-0.046335,0.027068,-0.108854,-3.663099,-31.310818,-6.016174,,,,,,,
1504199782.928624,1.728922,1.372707,1.849442,-0.056402,-0.037323,-0.310245,0.194341,-0.980444,0.030989,-0.064245,0.049277,-0.064375,-3.663099,-31.310818,-6.016174,,,,,,,
1504199782.938633,1.721483,1.370027,1.856201,-0.105049,-0.093438,-0.272871,0.197163,-0.979913,0.029937,-0.077977,-0.011969,-0.019500,-3.663099,-31.310818,-6.016174,,,,,,,
1504199782.948643,1.709241,1.367745,1.867423,-0.230287,-0.135046,-0.258071,0.199729,-0.979456,0.027830,-0.093757,-0.054999,-0.016065,-3.288511,-31.233837,-6.165833,,,,,,,
1504199782.958653,1.684733,1.365437,1.890299,-0.504037,-0.239369,-0.301052,0.202597,-0.978988,0.023184,-0.104254,-0.047318,0.017451,-3.288511,-31.233837,-6.165833,,,,,,,
1504199782.968663,1.646339,1.362718,1.926603,-0.780614,-0.296719,-0.345194,0.205991,-0.978430,0.015591,-0.115796,-0.032755,0.038044,-2.838102,-31.531368,-6.387451,,,,,,,
1504199782.978642,1.600660,1.360197,1.970602,-0.933222,-0.261429,-0.281476,0.208953,-0.977906,0.006242,-0.095122,-0.007385,0.073226,-2.838102,-31.531368,-6.387451,,,,,,,
1504199782.988652,1.549985,1.357975,2.019373,-1.044944,-0.310669,-0.207932,0.211172,-0.977439,-0.004395,-0.074805,-0.003625,0.127412,-2.688978,-31.230541,-6.464355,,,,,,,
1504199782.998662,1.500487,1.355954,2.066610,-0.988925,-0.333580,-0.138413,0.212666,-0.977010,-0.014977,-0.048192,0.015416,0.123849,-2.688978,-31.230541,-6.464355,,,,,,,
1504199783.008671,1.456399,1.354220,2.108111,-0.864684,-0.368767,-0.076227,0.213482,-0.976639,-0.024529,-0.018338,0.043945,0.128365,-2.765028,-31.304241,-7.289001,,,,,,,
1504199783.018681,1.418807,1.353057,2.142539,-0.718095,-0.394575,0.012667,0.213532,-0.976388,-0.032707,0.001281,0.048044,0.108986,-2.765028,-31.304241,-7.289001,,,,,,,
1504199783.028691,1.388372,1.353110,2.170211,-0.518433,-0.302570,0.131333,0.212387,-0.976400,-0.039180,0.010269,0.058217,0.067058,-2.766188,-31.153194,-7.815125,,,,,,,
1504199783.038701,1.376326,1.354618,2.181117,-0.096764,-0.095130,0.204281,0.210455,-0.976724,-0.041451,0.052042,0.084558,0.054406,-2.766188,-31.153194,-7.815125,,,,,,,
1504199783.048710,1.380791,1.357439,2.175894,0.240237,-0.066018,0.281666,0.207932,-0.977325,-0.039991,0.069259,0.167587,0.059522,-3.067244,-31.003643,-8.266998,,,,,,,
1504199783.058720,1.394463,1.362085,2.160654,0.434035,-0.150892,0.436925,0.203987,-0.978299,-0.036347,0.085228,0.231869,-0.018066,-3.141569,-31.004879,-7.817200,,,,,,,
1504199783.068730,1.408009,1.367954,2.144069,0.410885,-0.309589,0.546040,0.198791,-0.979498,-0.032650,0.086533,0.222570,-0.089436,-3.141569,-31.004879,-7.817200,,,,,,,
1504199783.078740,1.413202,1.374394,2.134873,0.238050,-0.393494,0.623809,0.192724,-0.980775,-0.030626,0.046687,0.207627,-0.086561,-3.141569,-31.004879,-7.817200,,,,,,,
1504199783.088749,1.409019,1.381054,2.135275,0.050245,-0.368551,0.668270,0.186143,-0.982053,-0.030379,-0.033464,0.159635,-0.020463,-3.816145,-31.083202,-7.668304,,,,,,,
1504199783.098759,1.395554,1.387632,2.145478,-0.112798,-0.335254,0.681805,0.179352,-0.983272,-0.031756,-0.094040,0.097347,0.071566,-3.816145,-31.083202,-7.668304,,,,,,,
1504199783.108769,1.375772,1.393937,2.162332,-0.193687,-0.316462,0.672025,0.172603,-0.984401,-0.034095,-0.110164,0.059413,0.105354,-3.965467,-31.309032,-7.591949,,,,,,,
1504199783.118779,1.355554,1.399737,2.179778,-0.161239,-0.300680,0.609077,0.166298,-0.985405,-0.036358,-0.093010,0.056511,0.080242,-3.965467,-31.309032,-7.591949,,,,,,,
1504199783.128788,1.341954,1.404981,2.190487,-0.022234,-0.309207,0.534615,0.160754,-0.986284,-0.037443,-0.064547,0.055788,0.019102,-4.491972,-30.711391,-7.597748,,,,,,,
1504199783.138798,1.336004,1.410557,2.193225,0.121482,-0.330668,0.564789,0.155177,-0.987189,-0.037119,-0.037608,0.053336,-0.054815,-4.491972,-30.711391,-7.597748,,,,,,,
1504199783.148808,1.338929,1.416999,2.186629,0.295895,-0.375836,0.605732,0.149092,-0.988197,-0.035203,0.001207,0.024772,-0.112121,-5.016935,-30.639050,-7.449585,,,,,,,
1504199783.158818,1.351429,1.423403,2.170207,0.408202,-0.373510,0.553620,0.143341,-0.989157,-0.031959,0.029435,-0.008325,-0.123620,-5.016935,-30.639050,-7.449585,,,,,,,
1504199783.168828,1.368131,1.429482,2.149740,0.399964,-0.351040,0.530083,0.137962,-0.990032,-0.028349,0.022835,-0.004338,-0.103242,-5.316893,-30.565701,-7.300903,,,,,,,
1504199783.178837,1.378284,1.435069,2.135583,0.258883,-0.400995,0.498972,0.132811,-0.990803,-0.025888,0.002840,-0.043712,-0.069159,-5.316893,-30.565701,-7.300903,,,,,,,
1504199783.188847,1.374345,1.439718,2.134865,0.049417,-0.482323,0.437911,0.128189,-0.991422,-0.025512,-0.007172,-0.066898,-0.032212,-5.691252,-30.642971,-7.001251,,,,,,,
1504199783.198857,1.359741,1.443419,2.145007,-0.081167,-0.441752,0.372501,0.124214,-0.991898,-0.026612,-0.028099,-0.051177,0.023500,-5.691252,-30.642971,-7.001251,,,,,,,
1504199783.208867,1.339927,1.446439,2.161092,-0.143299,-0.365540,0.330631,0.120746,-0.992278,-0.028383,-0.040897,-0.086915,0.095079,-6.066175,-30.495251,-6.703308,,,,,,,
1504199783.218876,1.316463,1.449017,2.181342,-0.194131,-0.335255,0.302737,0.117571,-0.992594,-0.030564,-0.029924,-0.120001,0.118058,-6.291471,-30.421124,-6.779419,,,,,,,
1504199783.228886,1.286908,1.451003,2.207620,-0.269786,-0.346315,0.265266,0.114723,-0.992833,-0.033473,-0.010246,-0.110041,0.085124,-6.291471,-30.421124,-6.779419,,,,,,,
1504199783.238896,1.255465,1.452423,2.236099,-0.276682,-0.299330,0.225677,0.112274,-0.993002,-0.036626,0.021240,-0.065348,0.030751,-6.291471,-30.421124,-6.779419,,,,,,,
1504199783.248906,1.232870,1.453722,2.256338,-0.138390,-0.239693,0.189520,0.110201,-0.993155,-0.038725,0.045835,-0.063562,0.018523,-6.517027,-30.197140,-6.781647,,,,,,,
1504199783.258915,1.228736,1.455355,2.258329,0.090409,-0.204241,0.151428,0.108512,-0.993344,-0.038637,0.055520,-0.094608,0.019761,-6.517027,-30.197140,-6.781647,,,,,,,
1504199783.268895,1.242098,1.457292,2.243885,0.252839,-0.057430,0.121563,0.107197,-0.993565,-0.036562,0.060833,-0.101451,-0.009062,-6.442900,-29.896648,-6.858734,,,,,,,
1504199783.278904,1.264631,1.459227,2.221549,0.305070,0.057246,0.101171,0.106160,-0.993783,-0.033558,0.059947,-0.074836,-0.025936,-6.666731,-30.272945,-6.706482,,,,,,,
1504199783.288914,1.286096,1.461021,2.200810,0.249830,0.090729,0.106353,0.105145,-0.993981,-0.030771,0.051441,-0.020713,-0.065421,-6.666731,-30.272945,-6.706482,,,,,,,
1504199783.298924,1.298887,1.462364,2.189051,0.129606,0.120512,0.085811,0.104244,-0.994127,-0.029065,0.036839,-0.004393,-0.120990,-6.891722,-30.049709,-6.333740,,,,,,,
1504199783.308934,1.302555,1.463073,2.186931,0.007409,0.163110,0.053502,0.103670,-0.994203,-0.028495,0.003034,-0.022429,-0.151940,-6.891722,-30.049709,-6.333740,,,,,,,
1504199783.318943,1.292039,1.462985,2.198834,-0.174244,0.108164,0.020195,0.103449,-0.994194,-0.029608,-0.033716,-0.044670,-0.155725,-7.042402,-29.825237,-6.410767,,,,,,,
1504199783.328953,1.265503,1.462187,2.224662,-0.321321,-0.150611,0.001183,0.103384,-0.994108,-0.032581,-0.048666,-0.075167,-0.163937,-7.042402,-29.825237,-6.410767,,,,,,,
1504199783.338963,1.237446,1.460881,2.251097,-0.298588,-0.142219,-0.051095,0.103656,-0.993965,-0.035893,-0.041721,-0.088402,-0.192363,-6.816725,-30.049374,-6.333527,,,,,,,
1504199783.348973,1.216863,1.459302,2.272058,-0.263860,0.057839,-0.062062,0.104367,-0.993791,-0.038563,-0.030072,-0.096327,-0.188427,-6.816725,-30.049374,-6.333527,,,,,,,
1504199783.358983,1.200535,1.458648,2.288753,-0.167537,0.014334,0.022507,0.104330,-0.993718,-0.040497,0.016764,-0.134532,-0.169815,-7.192900,-29.900021,-6.860596,,,,,,,
1504199783.368992,1.192385,1.458315,2.297625,-0.089859,0.101108,-0.010601,0.104303,-0.993681,-0.041468,0.092169,-0.110628,-0.162573,-7.192900,-29.900021,-6.860596,,,,,,,
1504199783.379002,1.188429,1.457197,2.303523,-0.117359,0.207989,-0.101566,0.105169,-0.993555,-0.042295,0.112269,-0.028876,-0.047167,-6.817518,-30.048336,-6.858521,,,,,,,
1504199783.389012,1.181327,1.455187,2.312837,-0.193927,0.205479,-0.156132,0.106713,-0.993325,-0.043799,0.074241,0.000039,0.044363,-6.817518,-30.048336,-6.858521,,,,,,,
1504199783.399022,1.174647,1.452779,2.321133,-0.163341,0.139197,-0.191186,0.108625,-0.993044,-0.045434,0.046877,-0.042158,0.061913,-6.892820,-29.973522,-6.934296,,,,,,,
1504199783.409031,1.173187,1.450442,2.323637,-0.114622,0.085530,-0.204884,0.110698,-0.992766,-0.046491,0.028142,-0.059343,0.048398,-6.892820,-29.973522,-6.934296,,,,,,,
1504199783.419041,1.166882,1.448066,2.330163,-0.189164,-0.014049,-0.179220,0.112571,-0.992478,-0.048115,0.001427,-0.023361,-0.000240,-6.443907,-29.671047,-7.160400,,,,,,,
1504199783.429051,1.151114,1.445689,2.345278,-0.298817,-0.086723,-0.130181,0.113953,-0.992184,-0.050845,-0.015549,0.015545,-0.087735,-6.443907,-29.671047,-7.160400,,,,,,,
1504199783.439061,1.123614,1.443071,2.372440,-0.460851,-0.038553,-0.081446,0.114853,-0.991854,-0.055082,-0.010209,0.044436,-0.150576,-6.668684,-29.896618,-7.384277,,,,,,,
1504199783.449070,1.084814,1.440002,2.412022,-0.631953,0.078952,-0.028580,0.115321,-0.991459,-0.060917,-0.025828,0.068958,-0.127300,-6.668684,-29.896618,-7.384277,,,,,,,
1504199783.459080,1.041766,1.436289,2.456124,-0.702382,0.063571,-0.051090,0.115770,-0.990968,-0.067681,-0.038164,0.062516,-0.049110,-6.669096,-29.821316,-7.534851,,,,,,,
1504199783.469090,0.997826,1.431709,2.501912,-0.801679,0.180552,-0.063210,0.116498,-0.990343,-0.075161,-0.042798,0.061678,-0.000950,-6.669096,-29.821316,-7.534851,,,,,,,
1504199783.479100,0.952462,1.426614,2.550631,-0.854112,0.314152,-0.032582,0.117079,-0.989624,-0.083290,-0.036071,0.011261,0.081123,-6.670225,-29.819820,-8.284882,,,,,,,
1504199783.489110,0.918097,1.422257,2.587664,-0.637434,0.194082,-0.028792,0.117573,-0.988988,-0.089881,-0.024266,-0.071192,0.169013,-6.670225,-29.819820,-8.284882,,,,,,,
1504199783.499119,0.890247,1.418484,2.616534,-0.561978,0.022965,-0.029427,0.117924,-0.988423,-0.095468,0.034603,-0.047374,0.077828,-6.445158,-30.117901,-8.732086,,,,,,,
1504199783.509129,0.864870,1.414629,2.641530,-0.529639,-0.087028,-0.057997,0.118362,-0.987831,-0.100900,0.070801,-0.040963,-0.063544,-6.445158,-30.117901,-8.732086,,,,,,,
1504199783.519139,0.844205,1.410867,2.661419,-0.468882,-0.110944,-0.084535,0.119029,-0.987239,-0.105793,0.081411,0.019725,-0.076031,-6.445570,-30.042614,-8.882629,,,,,,,
1504199783.529149,0.828332,1.407295,2.676567,-0.402477,-0.092288,-0.105800,0.119933,-0.986663,-0.110052,0.054216,0.006103,0.005911,-6.445570,-30.042614,-8.882629,,,,,,,
1504199783.539158,0.815500,1.403774,2.688757,-0.385125,-0.071096,-0.128223,0.121039,-0.986084,-0.113963,0.014154,-0.059448,0.034266,-6.971235,-30.044079,-9.333984,,,,,,,
1504199783.549168,0.805281,1.400146,2.698710,-0.367590,-0.029654,-0.154951,0.122447,-0.985475,-0.117672,-0.003505,-0.061767,0.006054,-6.971235,-30.044079,-9.333984,,,,,,,
1504199783.559147,0.796593,1.396299,2.707499,-0.379998,0.007764,-0.174252,0.124130,-0.984814,-0.121381,-0.022460,-0.026966,-0.006030,-6.522490,-29.591900,-9.411224,,,,,,,
1504199783.569157,0.789560,1.392269,2.715295,-0.376112,0.078088,-0.198919,0.126090,-0.984106,-0.125045,-0.045584,-0.000833,0.005675,-6.522490,-29.591900,-9.411224,,,,,,,
1504199783.579167,0.786538,1.388135,2.719886,-0.333509,0.173688,-0.244912,0.128591,-0.983364,-0.128298,-0.035405,0.020015,0.031511,-6.822676,-29.742504,-9.785828,,,,,,,
1504199783.589177,0.786825,1.383964,2.721529,-0.306500,0.191621,-0.283323,0.131530,-0.982598,-0.131155,-0.014892,0.069130,0.041876,-6.822676,-29.742504,-9.785828,,,,,,,
1504199783.599186,0.790158,1.379745,2.719978,-0.260477,0.178507,-0.333389,0.134911,-0.981805,-0.133633,0.004112,0.045297,0.036373,-6.148848,-29.364162,-9.937012,,,,,,,
1504199783.609196,0.799383,1.375847,2.712282,-0.131147,0.166853,-0.398255,0.138880,-0.981058,-0.135049,0.020894,-0.008414,0.042184,-6.148848,-29.364162,-9.937012,,,,,,,
1504199783.619206,0.815868,1.372489,2.696998,0.020487,0.141165,-0.465194,0.143487,-0.980401,-0.134999,0.022941,-0.027777,0.063221,-5.697828,-29.811993,-10.007507,,,,,,,
1504199783.629216,0.838191,1.369559,2.675465,0.147534,0.118861,-0.517237,0.148599,-0.979820,-0.133683,0.023352,-0.034676,0.063096,-5.697828,-29.811993,-10.007507,,,,,,,
1504199783.639225,0.865026,1.366603,2.649383,0.197213,0.144109,-0.597250,0.154336,-0.979225,-0.131526,0.020804,-0.037148,0.047190,-5.398024,-29.735638,-10.007324,,,,,,,
1504199783.649235,0.891413,1.362131,2.626926,0.088250,0.512664,-0.621572,0.161158,-0.978308,-0.130158,0.010855,-0.007852,0.052841,-5.398024,-29.735638,-10.007324,,,,,,,
1504199783.659245,0.923156,1.358919,2.599041,0.259556,0.450519,-0.626503,0.167713,-0.977638,-0.126873,-0.052524,0.045723,0.210964,-5.247953,-29.809826,-10.081421,,,,,,,
1504199783.669255,0.952123,1.354923,2.575078,0.167624,0.570609,-0.612997,0.174498,-0.976790,-0.124227,-0.069472,-0.004152,0.231191,-5.247953,-29.809826,-10.081421,,,,,,,
1504199783.679265,0.980539,1.351573,2.551683,0.238637,0.552906,-0.546664,0.180675,-0.976067,-0.121039,-0.059200,0.016273,0.127799,-4.797956,-29.807796,-10.080292,,,,,,,
1504199783.689274,1.007609,1.348696,2.529407,0.253080,0.525025,-0.492153,0.186259,-0.975437,-0.117604,-0.061442,0.023578,0.146336,-4.797956,-29.807796,-10.080292,,,,,,,
1504199783.699284,1.032742,1.346334,2.508699,0.269434,0.477933,-0.423727,0.191133,-0.974914,-0.114066,-0.028887,0.045226,0.084281,-4.122129,-29.955364,-9.777496,,,,,,,
1504199783.709294,1.055161,1.344226,2.490601,0.230839,0.486722,-0.372574,0.195429,-0.974443,-0.110766,-0.018717,0.026933,0.054751,-4.122129,-29.955364,-9.777496,,,,,,,
1504199783.719304,1.074786,1.342153,2.476193,0.163093,0.583136,-0.325896,0.199341,-0.973975,-0.107870,-0.029587,-0.021890,0.064093,-3.971983,-30.104397,-9.926025,,,,,,,
1504199783.729313,1.090547,1.340510,2.465926,0.129114,0.533227,-0.224464,0.202436,-0.973601,-0.105454,-0.036283,-0.037004,0.090623,-3.971983,-30.104397,-9.926025,,,,,,,
1504199783.739323,1.102006,1.339258,2.459132,0.053923,0.503953,-0.170105,0.204718,-0.973315,-0.103679,-0.006278,-0.021024,0.075694,-4.121412,-30.330059,-9.924683,,,,,,,
1504199783.749333,1.109847,1.338170,2.456700,-0.008910,0.557685,-0.107332,0.206473,-0.973064,-0.102541,0.008752,0.025219,-0.007292,-4.121412,-30.330059,-9.924683,,,,,,,
1504199783.759343,1.116392,1.337482,2.456093,-0.017312,0.605654,-0.057263,0.207742,-0.972905,-0.101482,-0.031991,0.051656,0.001506,-3.521833,-30.027813,-9.700470,,,,,,,
1504199783.769352,1.122781,1.337264,2.456156,-0.006528,0.654526,-0.001826,0.208576,-0.972855,-0.100244,-0.070118,0.073380,0.000192,-3.521833,-30.027813,-9.700470,,,,,,,
1504199783.779362,1.127624,1.337634,2.457983,-0.037883,0.649378,0.072847,0.208734,-0.972941,-0.099078,-0.091608,0.082697,-0.032071,-3.522245,-29.952511,-9.851013,,,,,,,
1504199783.789372,1.131806,1.338923,2.460283,0.022347,0.630676,0.160512,0.208011,-0.973238,-0.097671,-0.093677,0.080248,-0.070908,-3.522245,-29.952511,-9.851013,,,,,,,
1504199783.799382,1.134055,1.340787,2.464343,-0.021914,0.608592,0.228788,0.206587,-0.973664,-0.096436,-0.086149,0.078401,-0.095169,-3.596571,-30.178005,-9.774506,,,,,,,
1504199783.809391,1.135507,1.343247,2.469372,0.013216,0.632755,0.283243,0.204554,-0.974222,-0.095126,-0.093516,0.045969,-0.125684,-3.596571,-30.178005,-9.774506,,,,,,,
1504199783.819401,1.139006,1.346452,2.472558,0.077206,0.662010,0.335605,0.202048,-0.974940,-0.093102,-0.097144,0.012233,-0.096397,-3.596800,-30.177700,-9.924530,,,,,,,
1504199783.829393,1.137320,1.350028,2.480250,-0.045816,0.537201,0.414600,0.198727,-0.975729,-0.091978,-0.094250,0.020667,-0.078326,-3.596800,-30.177700,-9.924530,,,,,,,
1504199783.839403,1.124597,1.353489,2.497316,-0.229045,0.351089,0.487194,0.194493,-0.976481,-0.093040,-0.051792,0.007854,-0.069832,-3.447279,-30.026882,-10.000275,,,,,,,
1504199783.849413,1.106135,1.357076,2.519117,-0.255573,0.267073,0.537464,0.189609,-0.977249,-0.095045,-0.004947,-0.025620,-0.007418,-3.447279,-30.026882,-10.000275,,,,,,,
1504199783.859392,1.088338,1.361180,2.539770,-0.177055,0.233358,0.570749,0.184333,-0.978111,-0.096542,0.015237,-0.004342,0.110855,-3.747663,-29.878231,-10.002136,,,,,,,
1504199783.869402,1.071384,1.365697,2.559300,-0.138967,0.206382,0.592211,0.178790,-0.979041,-0.097537,0.033292,0.024222,0.161502,-3.747663,-29.878231,-10.002136,,,,,,,
1504199783.879411,1.052099,1.370256,2.580651,-0.155557,0.145759,0.612570,0.172997,-0.979959,-0.098752,0.043052,0.020853,0.113508,-4.422987,-29.880810,-10.228790,,,,,,,
1504199783.889421,1.031533,1.374856,2.602663,-0.135755,0.089115,0.615906,0.167060,-0.980865,-0.099973,0.041970,-0.009110,0.065077,-4.422987,-29.880810,-10.228790,,,,,,,
1504199783.899431,1.010583,1.379460,2.624670,-0.114660,0.055913,0.611732,0.161102,-0.981751,-0.101051,0.039795,-0.036590,0.070411,-4.647581,-29.957119,-10.078796,,,,,,,
1504199783.909441,0.989423,1.383993,2.646511,-0.097808,0.020622,0.599014,0.155207,-0.982603,-0.101991,0.037954,-0.047625,0.061983,-4.647581,-29.957119,-10.078796,,,,,,,
1504199783.919450,0.967004,1.388265,2.669073,-0.110997,-0.038924,0.580951,0.149425,-0.983387,-0.103061,0.045277,-0.044201,0.030078,-4.948179,-29.808178,-10.230652,,,,,,,
1504199783.929460,0.941855,1.392046,2.693659,-0.149883,-0.113171,0.557531,0.143778,-0.984067,-0.104598,0.059530,-0.042179,0.020507,-4.948179,-29.808178,-10.230652,,,,,,,
1504199783.939470,0.913914,1.395058,2.720355,-0.236623,-0.184864,0.506272,0.138452,-0.984598,-0.106763,0.070929,-0.048010,0.053586,-5.323957,-29.584560,-10.383270,,,,,,,
1504199783.949480,0.889108,1.398155,2.743281,-0.126151,-0.269917,0.468187,0.133393,-0.985134,-0.108243,0.063766,0.007412,0.089307,-5.323957,-29.584560,-10.383270,,,,,,,
1504199783.959489,0.865589,1.400595,2.764832,-0.006112,-0.229361,0.425633,0.128980,-0.985551,-0.109791,0.031787,0.038117,0.103383,-5.998930,-29.512890,-10.235504,,,,,,,
1504199783.969499,0.849474,1.403770,2.778371,0.045864,-0.303255,0.368214,0.124844,-0.986083,-0.109789,-0.006619,0.070556,0.105654,-5.998930,-29.512890,-10.235504,,,,,,,
1504199783.979509,0.835700,1.406907,2.788981,0.087270,-0.344064,0.343807,0.121024,-0.986600,-0.109423,0.012399,0.036649,0.036699,-6.149672,-29.213558,-10.238129,,,,,,,
1504199783.989519,0.823059,1.409862,2.797658,0.095316,-0.432529,0.300213,0.117493,-0.987078,-0.108961,0.020889,0.051348,-0.018923,-6.149672,-29.213558,-10.238129,,,,,,,
1504199783.999529,0.812045,1.412396,2.803927,0.106908,-0.491165,0.235225,0.114471,-0.987481,-0.108527,0.025025,-0.001548,0.002143,-6.674452,-29.216228,-10.089417,,,,,,,
1504199784.009538,0.807204,1.414690,2.804070,0.173824,-0.453258,0.142411,0.112307,-0.987840,-0.107513,0.039320,-0.012236,0.016296,-6.674452,-29.216228,-10.089417,,,,,,,
1504199784.019548,0.810379,1.416682,2.796861,0.232563,-0.373720,0.044171,0.111222,-0.988148,-0.105799,0.021041,-0.026012,0.053370,-7.049406,-29.143215,-9.940918,,,,,,,
1504199784.029558,0.819569,1.418236,2.784160,0.247180,-0.332195,-0.039134,0.111067,-0.988385,-0.103724,0.012057,-0.037845,0.019465,-7.049406,-29.143215,-9.940918,,,,,,,
1504199784.039568,0.829692,1.418885,2.770528,0.174961,-0.332596,-0.106505,0.111638,-0.988484,-0.102162,0.033183,-0.057232,-0.045009,-6.899031,-29.068279,-9.566101,,,,,,,
1504199784.049577,0.839443,1.418877,2.757412,0.134833,-0.304520,-0.145051,0.112635,-0.988482,-0.101074,0.050772,-0.068738,-0.088273,-6.899031,-29.068279,-9.566101,,,,,,,
1504199784.059587,0.851430,1.418594,2.742675,0.157909,-0.238613,-0.173947,0.114048,-0.988440,-0.099901,0.030864,-0.079508,-0.085921,-7.274031,-28.845715,-9.193695,,,,,,,
1504199784.069597,0.865001,1.418151,2.727053,0.140349,-0.177710,-0.192230,0.115727,-0.988372,-0.098628,-0.012440,-0.044907,-0.106008,-7.274031,-28.845715,-9.193695,,,,,,,
1504199784.079607,0.876301,1.417230,2.713980,0.076550,-0.155863,-0.200919,0.117534,-0.988232,-0.097896,-0.039806,-0.033512,-0.140156,-7.273085,-29.220715,-9.190887,,,,,,,
1504199784.089616,0.885516,1.415831,2.703614,0.024839,-0.091490,-0.211796,0.119501,-0.988017,-0.097684,-0.053079,-0.048070,-0.158130,-7.273085,-29.220715,-9.190887,,,,,,,
1504199784.099626,0.892683,1.414135,2.695721,-0.022876,-0.051674,-0.207679,0.121503,-0.987754,-0.097876,-0.047910,-0.045938,-0.111200,-7.422331,-29.297146,-8.815674,,,,,,,
1504199784.109636,0.898175,1.412265,2.690108,-0.053329,0.014635,-0.199309,0.123483,-0.987460,-0.098358,-0.021829,-0.039502,-0.073807,-7.422331,-29.297146,-8.815674,,,,,,,
1504199784.119646,0.902626,1.410264,2.686101,-0.083925,0.061767,-0.193041,0.125471,-0.987142,-0.099032,0.003649,-0.036265,-0.076750,-7.646879,-29.298748,-8.516235,,,,,,,
1504199784.129655,0.904959,1.408106,2.684783,-0.129457,0.114341,-0.178269,0.127376,-0.986795,-0.100054,0.002156,-0.020331,-0.089643,-7.646879,-29.298748,-8.516235,,,,,,,
1504199784.139665,0.904322,1.405822,2.686792,-0.186997,0.140362,-0.151730,0.129083,-0.986423,-0.101528,-0.013131,-0.025449,-0.092137,-7.421888,-29.297741,-8.515656,,,,,,,
1504199784.149644,0.898456,1.403305,2.693931,-0.271744,0.104793,-0.116590,0.130428,-0.986006,-0.103830,-0.023830,-0.037416,-0.088355,-7.421888,-29.297741,-8.515656,,,,,,,
1504199784.159654,0.888514,1.400596,2.704818,-0.319084,0.072121,-0.089929,0.131461,-0.985551,-0.106805,-0.003349,-0.050445,-0.086707,-7.871275,-29.674313,-8.738983,,,,,,,
1504199784.169664,0.877775,1.397874,2.716418,-0.326700,0.058324,-0.082446,0.132370,-0.985086,-0.109924,0.003234,-0.027853,-0.064926,-7.871275,-29.674313,-8.738983,,,,,,,
1504199784.179674,0.866948,1.395222,2.727771,-0.311978,0.034754,-0.077042,0.133164,-0.984626,-0.113042,-0.002732,0.001930,-0.028148,-8.321577,-29.376934,-8.442352,,,,,,,
1504199784.189684,0.860303,1.393062,2.735073,-0.206031,0.070119,-0.084392,0.134021,-0.984247,-0.115310,-0.014072,0.028436,-0.003525,-8.321577,-29.376934,-8.442352,,,,,,,
1504199784.199693,0.860105,1.391773,2.736461,-0.072243,0.125489,-0.079989,0.134961,-0.984018,-0.116165,-0.031750,0.060632,0.033599,-8.621077,-29.528423,-8.366943,,,,,,,
1504199784.209703,0.863834,1.391200,2.733963,0.018409,0.126864,-0.070227,0.135821,-0.983916,-0.116027,-0.033938,0.069960,0.024367,-8.621077,-29.528423,-8.366943,,,,,,,
1504199784.219713,0.870073,1.391167,2.728892,0.087671,0.123084,-0.058359,0.136567,-0.983910,-0.115198,-0.009080,0.072548,-0.050208,-8.845671,-29.604748,-8.216949,,,,,,,
1504199784.229723,0.879673,1.391719,2.720463,0.175282,0.140475,-0.055036,0.137248,-0.984008,-0.113535,-0.017604,0.080932,-0.060598,-8.845671,-29.604748,-8.216949,,,,,,,
1504199784.239732,0.892266,1.392479,2.709148,0.212747,0.144447,-0.073124,0.138085,-0.984143,-0.111329,-0.033654,0.094999,-0.018722,-8.620588,-29.678585,-8.290802,,,,,,,
1504199784.249742,0.904754,1.392729,2.697553,0.276502,0.107702,-0.080422,0.139271,-0.984188,-0.109443,-0.003361,0.032329,-0.005013,-8.620588,-29.678585,-8.290802,,,,,,,
1504199784.259752,0.921308,1.393876,2.681449,0.296419,0.060656,-0.084575,0.140164,-0.984390,-0.106440,0.016727,-0.010864,-0.029638,-8.470060,-29.753353,-8.064911,,,,,,,
1504199784.269762,0.938813,1.394963,2.664257,0.310344,0.059489,-0.097357,0.141142,-0.984581,-0.103338,0.036852,-0.003517,-0.054270,-8.470060,-29.753353,-8.064911,,,,,,,
1504199784.279771,0.956849,1.395842,2.646627,0.294515,0.073486,-0.110218,0.142276,-0.984734,-0.100277,0.048947,-0.010963,-0.050891,-8.619841,-29.754330,-7.915253,,,,,,,
1504199784.289781,0.968270,1.392373,2.635858,0.260701,0.107889,-0.123163,0.146226,-0.984125,-0.100582,0.024810,-0.020560,-0.031742,-8.619841,-29.754330,-7.915253,,,,,,,
1504199784.299791,0.982017,1.392466,2.622960,0.166741,0.101200,-0.120112,0.147518,-0.984141,-0.098511,-0.001965,-0.004811,-0.034515,-8.393782,-30.128460,-7.836884,,,,,,,
1504199784.309801,0.989304,1.391868,2.616430,0.027833,0.079959,-0.112843,0.148724,-0.984035,-0.097757,-0.004483,-0.017247,-0.054007,-8.393782,-30.128460,-7.836884,,,,,,,
1504199784.319810,0.988796,1.390368,2.617565,-0.148405,0.053709,-0.116305,0.149907,-0.983767,-0.098644,0.017314,-0.059187,-0.059391,-8.394011,-29.903912,-7.613556,,,,,,,
1504199784.329820,0.979669,1.387788,2.627012,-0.324744,0.011481,-0.125075,0.151107,-0.983301,-0.101422,0.041810,-0.108145,-0.061222,-8.394011,-29.903912,-7.613556,,,,,,,
1504199784.339830,0.966095,1.384241,2.641119,-0.437424,0.043345,-0.157349,0.152585,-0.982649,-0.105446,0.035464,-0.115831,-0.075524,-7.944731,-29.751446,-7.838593,,,,,,,
1504199784.349840,0.942745,1.379582,2.665886,-0.500265,0.166451,-0.198233,0.153785,-0.981774,-0.111668,-0.005057,-0.035514,-0.016963,-7.944731,-29.751446,-7.838593,,,,,,,
1504199784.359850,0.930317,1.374642,2.680974,-0.536696,0.258430,-0.233682,0.156272,-0.980823,-0.116468,-0.036872,0.041645,0.049955,-7.496809,-29.372921,-8.590302,,,,,,,
1504199784.369859,0.917414,1.369205,2.696990,-0.587636,0.286565,-0.243427,0.158988,-0.979749,-0.121714,-0.032996,0.065244,0.029398,-7.496809,-29.372921,-8.590302,,,,,,,
1504199784.379869,0.906885,1.363818,2.711202,-0.540078,0.358642,-0.250943,0.161852,-0.978656,-0.126632,-0.037722,0.098545,-0.029343,-6.897337,-29.519039,-9.187714,,,,,,,
1504199784.389879,0.900621,1.358951,2.721941,-0.451970,0.442089,-0.241331,0.164787,-0.977645,-0.130600,-0.058052,0.143782,-0.031479,-6.897337,-29.519039,-9.187714,,,,,,,
1504199784.399889,0.898324,1.354880,2.729248,-0.351433,0.491313,-0.211356,0.167599,-0.976780,-0.133456,-0.058224,0.165791,-0.032086,-6.074156,-29.064419,-9.639069,,,,,,,
1504199784.409898,0.896222,1.351452,2.736025,-0.324477,0.423907,-0.162090,0.169932,-0.976040,-0.135899,-0.036051,0.153470,-0.061809,-6.074156,-29.064419,-9.639069,,,,,,,
1504199784.419908,0.891907,1.348340,2.743954,-0.313581,0.342792,-0.123502,0.171707,-0.975359,-0.138537,0.032837,0.092210,-0.089795,-5.774824,-29.062176,-10.088318,,,,,,,
1504199784.429918,0.889678,1.335342,2.750178,-0.154350,0.374552,-0.129734,0.181232,-0.972408,-0.146891,0.075436,0.024075,-0.073660,-5.774824,-29.062176,-10.088318,,,,,,,
1504199784.439897,0.891796,1.332966,2.751797,-0.171087,0.391780,-0.169288,0.183340,-0.971851,-0.147957,0.063456,-0.021099,0.004890,-5.549788,-29.210720,-10.311646,,,,,,,
1504199784.449907,0.898937,1.331008,2.748837,-0.027541,0.438592,-0.209683,0.185881,-0.971388,-0.147828,0.034685,-0.083498,0.022416,-5.549788,-29.210720,-10.311646,,,,,,,
1504199784.459917,0.909972,1.329264,2.741874,0.026816,0.408346,-0.246894,0.188838,-0.970973,-0.146807,-0.008738,-0.121923,0.081851,-5.174940,-29.283581,-10.535156,,,,,,,
1504199784.469926,0.924666,1.330514,2.730731,0.046724,0.352777,-0.260626,0.190005,-0.971271,-0.143286,-0.024188,-0.106732,0.035437,-5.174940,-29.283581,-10.535156,,,,,,,
1504199784.479936,0.936656,1.328906,2.721643,0.089036,0.309800,-0.256207,0.192968,-0.970887,-0.141923,-0.020192,-0.089370,0.002336,-4.649504,-29.281826,-10.233856,,,,,,,
1504199784.489946,0.949693,1.327631,2.711238,0.138915,0.283803,-0.244333,0.195808,-0.970581,-0.140115,-0.035713,-0.062622,0.011347,-4.649504,-29.281826,-10.233856,,,,,,,
1504199784.499956,0.963387,1.326781,2.699843,0.185512,0.253560,-0.222851,0.198386,-0.970376,-0.137892,-0.035101,-0.020515,0.041441,-4.424955,-29.280209,-10.533295,,,,,,,
1504199784.509966,0.987633,1.330710,2.677773,0.207427,0.208579,-0.191765,0.198486,-0.971317,-0.130941,-0.030060,0.009724,0.049993,-4.424955,-29.280209,-10.533295,,,,,,,
1504199784.519975,1.000428,1.330446,2.666420,0.215502,0.169055,-0.162861,0.200361,-0.971255,-0.128529,-0.026014,0.004717,0.043156,-4.199766,-29.354198,-10.532166,,,,,,,
1504199784.529985,1.012795,1.330595,2.655103,0.242702,0.129358,-0.117913,0.201812,-0.971290,-0.125965,-0.030716,-0.008431,0.045566,-4.199766,-29.354198,-10.532166,,,,,,,
1504199784.539995,1.025576,1.331390,2.642983,0.303042,0.097912,-0.072922,0.202746,-0.971479,-0.122975,-0.038744,-0.004382,0.051427,-4.199278,-29.504360,-10.456055,,,,,,,
1504199784.550005,1.047915,1.335879,2.621452,0.380775,0.096165,-0.041819,0.201662,-0.972534,-0.116237,-0.025926,0.023147,0.034617,-4.199278,-29.504360,-10.456055,,,,,,,
1504199784.560014,1.063908,1.337513,2.605676,0.394307,0.054494,-0.040654,0.202105,-0.972913,-0.112225,-0.011432,0.010358,0.004254,-4.199385,-29.279949,-10.157745,,,,,,,
1504199784.570024,1.078181,1.338731,2.591539,0.322868,0.052963,-0.052517,0.202642,-0.973193,-0.108769,-0.025991,-0.047650,-0.030758,-4.199385,-29.279949,-10.157745,,,,,,,
1504199784.580034,1.090566,1.339069,2.579523,0.241205,0.075014,-0.115674,0.203682,-0.973271,-0.106099,-0.053947,-0.092631,-0.014919,-4.048979,-29.354580,-10.006805,,,,,,,
1504199784.590044,1.101704,1.341819,2.569246,0.172364,0.125678,-0.136146,0.202463,-0.973899,-0.102613,-0.025110,-0.088738,0.009809,-4.048979,-29.354580,-10.006805,,,,,,,
1504199784.600053,1.114604,1.341936,2.556369,0.298283,-0.006426,-0.137829,0.203667,-0.973926,-0.099943,0.008644,-0.018704,0.022153,-3.597807,-29.727856,-9.852905,,,,,,,
1504199784.610063,1.130607,1.342292,2.539999,0.365557,0.010054,-0.122798,0.204927,-0.974006,-0.096523,0.010893,-0.087990,0.029827,-3.597807,-29.727856,-9.852905,,,,,,,
1504199784.620073,1.149347,1.342781,2.520158,0.448193,-0.079045,-0.148116,0.206265,-0.974117,-0.092471,0.037388,-0.023579,-0.030255,-3.972700,-29.505444,-9.405487,,,,,,,
1504199784.630083,1.163398,1.338203,2.503274,0.722895,-0.266730,-0.124921,0.211636,-0.973072,-0.091330,0.056476,0.017155,-0.066171,-3.972700,-29.505444,-9.405487,,,,,,,
1504199784.640092,1.198703,1.341249,2.461681,1.021684,-0.503663,-0.085558,0.211966,-0.973769,-0.082725,0.071969,0.072768,-0.101601,-3.522398,-29.578564,-9.328827,,,,,,,
1504199784.650102,1.230323,1.343171,2.425870,0.761879,-0.309706,-0.094890,0.212710,-0.974205,-0.075357,0.075116,-0.015129,-0.180182,-3.522398,-29.578564,-9.328827,,,,,,,
1504199784.660112,1.252871,1.344514,2.399068,0.550072,-0.353824,-0.054618,0.213113,-0.974507,-0.070133,-0.007287,-0.078059,-0.070278,-3.520781,-29.954464,-8.875977,,,,,,,
1504199784.670122,1.266940,1.345418,2.382265,0.339811,-0.207208,-0.018949,0.213238,-0.974710,-0.066864,-0.077602,-0.121863,-0.024399,-3.520781,-29.954464,-8.875977,,,,,,,
1504199784.680132,1.275642,1.345994,2.371728,0.199703,-0.112288,-0.012955,0.213275,-0.974838,-0.064843,-0.086550,-0.128296,0.072732,-3.519911,-30.030361,-8.425446,,,,,,,
1504199784.690141,1.278279,1.346094,2.369157,0.014091,0.032021,-0.002857,0.213351,-0.974860,-0.064252,-0.086719,-0.055062,0.090253,-3.519911,-30.030361,-8.425446,,,,,,,
1504199784.700151,1.274899,1.346032,2.373311,-0.123302,0.082137,0.028839,0.213191,-0.974847,-0.064990,-0.088465,-0.002921,0.089923,-3.520094,-29.955349,-8.425995,,,,,,,
1504199784.710161,1.267169,1.345941,2.382478,-0.213791,0.126540,0.059558,0.212767,-0.974826,-0.066663,-0.075209,0.006687,0.035291,-3.520094,-29.955349,-8.425995,,,,,,,
1504199784.720171,1.258598,1.346045,2.392821,-0.210454,0.159519,0.085124,0.212090,-0.974850,-0.068453,-0.041711,0.030529,-0.004026,-3.595106,-29.955700,-8.426178,,,,,,,
1504199784.730180,1.251923,1.346371,2.401379,-0.158158,0.165476,0.091608,0.211328,-0.974922,-0.069768,-0.023874,0.059273,-0.040706,-3.595106,-29.955700,-8.426178,,,,,,,
1504199784.740160,1.245629,1.346687,2.409386,-0.167862,0.147449,0.083084,0.210592,-0.974992,-0.070998,-0.019796,0.097749,-0.065034,-3.294767,-30.179043,-8.573761,,,,,,,
1504199784.750169,1.236754,1.346795,2.419885,-0.235210,0.133082,0.086195,0.209854,-0.975016,-0.072829,-0.009552,0.125575,-0.071107,-3.294767,-30.179043,-8.573761,,,,,,,
1504199784.760179,1.226351,1.346722,2.432191,-0.261544,0.174859,0.085008,0.209153,-0.975000,-0.075033,0.005493,0.130686,-0.018732,-3.520887,-29.954311,-8.950989,,,,,,,
1504199784.770189,1.218202,1.346930,2.442931,-0.191732,0.247785,0.109551,0.208344,-0.975046,-0.076664,0.014954,0.127177,0.065815,-3.520887,-29.954311,-8.950989,,,,,,,
1504199784.780199,1.213657,1.347942,2.449870,-0.090947,0.205347,0.156766,0.207069,-0.975271,-0.077266,0.046853,0.062078,0.107890,-3.296080,-29.878307,-8.951019,,,,,,,
1504199784.790208,1.210000,1.349078,2.455572,-0.063184,0.200868,0.145080,0.205748,-0.975521,-0.077631,0.074831,0.012096,0.037882,-3.296080,-29.878307,-8.951019,,,,,,,
1504199784.800218,1.209784,1.350490,2.458034,0.011540,0.207709,0.148400,0.204442,-0.975830,-0.077189,0.085902,0.107514,-0.031545,-3.746122,-29.955029,-9.101532,,,,,,,
1504199784.810228,1.212493,1.351749,2.456624,0.103947,0.111118,0.077215,0.203500,-0.976105,-0.076204,0.036216,0.165070,0.018419,-3.746122,-29.955029,-9.101532,,,,,,,
1504199784.820238,1.221172,1.351476,2.449303,0.157732,0.179074,-0.116012,0.204404,-0.976045,-0.074526,-0.082319,0.272295,0.022921,-3.746229,-29.730618,-8.803253,,,,,,,
1504199784.830227,1.239522,1.350727,2.432652,0.378178,0.195483,-0.221332,0.206429,-0.975882,-0.071001,-0.073143,0.425040,0.023043,-3.746229,-29.730618,-8.803253,,,,,,,
1504199784.840236,1.266419,1.349390,2.405999,0.562244,0.058757,-0.337118,0.209507,-0.975590,-0.065814,-0.012348,0.371036,0.019412,-3.520704,-30.029308,-8.950439,,,,,,,
1504199784.850246,1.301956,1.347663,2.368662,0.795805,-0.141278,-0.423888,0.213338,-0.975209,-0.058777,0.057430,0.296010,-0.038666,-3.520704,-30.029308,-8.950439,,,,,,,
1504199784.860256,1.343708,1.344839,2.323299,0.945828,-0.270258,-0.547219,0.218288,-0.974580,-0.050441,0.059697,0.155397,-0.057363,-2.994963,-29.878445,-8.200256,,,,,,,
1504199784.870266,1.391379,1.341272,2.270805,1.134112,-0.371923,-0.596882,0.223862,-0.973775,-0.040601,0.071334,0.098912,-0.003939,-2.994963,-29.878445,-8.200256,,,,,,,
1504199784.880275,1.441074,1.337046,2.215255,1.205019,-0.456668,-0.616890,0.229682,-0.972804,-0.029963,0.084298,-0.035023,0.079447,-2.918867,-29.954311,-7.599487,,,,,,,
1504199784.890285,1.487185,1.332199,2.162482,1.147788,-0.536127,-0.607242,0.235514,-0.971671,-0.019738,0.118841,-0.140955,0.127632,-2.918867,-29.954311,-7.599487,,,,,,,
1504199784.900295,1.521863,1.327036,2.120581,0.883326,-0.627762,-0.568045,0.241065,-0.970437,-0.011806,0.142556,-0.231055,0.147929,-2.316954,-30.178402,-6.696320,,,,,,,
1504199784.910305,1.539652,1.321870,2.094839,0.508737,-0.752583,-0.535385,0.246244,-0.969177,-0.007671,0.147249,-0.293976,0.153423,-2.316954,-30.178402,-6.696320,,,,,,,
1504199784.920314,1.544036,1.316172,2.083090,0.251913,-0.608696,-0.580914,0.251791,-0.967758,-0.006740,0.064905,-0.275818,0.153758,-1.940184,-30.478069,-6.018127,,,,,,,
1504199784.930324,1.557552,1.310540,2.066665,0.474502,-0.117169,-0.568587,0.257306,-0.966324,-0.003408,-0.095013,-0.142669,0.203985,-1.940184,-30.478069,-6.018127,,,,,,,
1504199784.940334,1.579248,1.304889,2.044647,0.575240,0.078061,-0.559150,0.262775,-0.964854,0.002221,-0.195713,-0.111714,0.253074,-1.791014,-30.102535,-5.945557,,,,,,,
1504199784.950344,1.597806,1.299841,2.026577,0.457789,0.121562,-0.471903,0.267555,-0.963516,0.007228,-0.192893,-0.076401,0.054845,-1.791014,-30.102535,-5.945557,,,,,,,
1504199784.960353,1.612526,1.295787,2.012003,0.397986,0.048416,-0.364070,0.271320,-0.962423,0.011329,-0.157810,-0.116679,-0.164756,-1.115263,-30.175259,-5.568329,,,,,,,
1504199784.970363,1.628358,1.292592,1.996093,0.477705,0.064664,-0.276428,0.274174,-0.961550,0.015799,-0.106206,-0.158247,-0.214759,-1.115263,-30.175259,-5.568329,,,,,,,
1504199784.980373,1.648483,1.290081,1.976554,0.574035,0.155425,-0.192096,0.276208,-0.960858,0.021501,-0.067223,-0.140354,-0.139039,-1.413755,-30.552349,-5.191254,,,,,,,
1504199784.990383,1.670052,1.288319,1.956223,0.571917,0.213956,-0.101474,0.277363,-0.960368,0.027621,-0.055577,-0.141805,-0.056185,-1.413755,-30.552349,-5.191254,,,,,,,
