timestamp(unix),attitude_roll(radians),attitude_pitch(radians),attitude_yaw(radians),rotation_rate_x(radians/s),rotation_rate_y(radians/s),rotation_rate_z(radians/s),gravity_x(G),gravity_y(G),gravity_z(G),user_acc_x(G),user_acc_y(G),user_acc_z(G),magnetic_field_x(microteslas),magnetic_field_y(microteslas),magnetic_field_z(microteslas),latitude(degree),longitude(degree),altitude(meter),speed(m/s),course(degree),timestamp(unix),User Mark
1504199062.351178,-0.061673,0.687335,2.226983,-0.027587,0.073133,-0.054497,-0.047640,-0.634479,-0.771470,0.073351,0.154758,-0.077910,25.808748,19.151031,-30.028564,,,,,,,
1504199062.361188,-0.060371,0.686721,2.225971,-0.077696,0.061851,-0.080182,-0.046658,-0.634005,-0.771920,0.058331,0.150957,-0.086463,25.808748,19.151031,-30.028564,,,,,,,
1504199062.371198,-0.059130,0.685719,2.224640,-0.114104,0.031272,-0.102606,-0.045738,-0.633230,-0.772611,0.047462,0.144720,-0.086352,26.033968,19.151733,-29.877991,,,,,,,
1504199062.381208,-0.058203,0.684468,2.223065,-0.135798,-0.021815,-0.116426,-0.045067,-0.632261,-0.773444,0.045129,0.144346,-0.080377,26.033968,19.151733,-29.877991,,,,,,,
1504199062.391218,-0.057882,0.683031,2.221446,-0.157656,-0.086637,-0.116350,-0.044872,-0.631147,-0.774364,0.046032,0.148344,-0.074498,25.958666,19.226547,-29.953735,,,,,,,
1504199062.401227,-0.058392,0.681365,2.219909,-0.178633,-0.169590,-0.107701,-0.045328,-0.629854,-0.775390,0.050852,0.146089,-0.081498,25.958666,19.226547,-29.953735,,,,,,,
1504199062.411237,-0.059753,0.679437,2.218470,-0.204891,-0.245041,-0.098007,-0.046456,-0.628356,-0.776538,0.065865,0.140440,-0.091809,25.957842,19.601410,-29.881561,,,,,,,
1504199062.421216,-0.062046,0.677364,2.217171,-0.215247,-0.331283,-0.085064,-0.048317,-0.626741,-0.777728,0.081932,0.133135,-0.102933,25.957842,19.601410,-29.881561,,,,,,,
1504199062.431226,-0.065210,0.675276,2.216086,-0.212696,-0.400588,-0.065724,-0.050863,-0.625113,-0.778876,0.092931,0.124609,-0.106363,25.507051,19.824677,-30.034363,,,,,,,
1504199062.441236,-0.069032,0.673411,2.215296,-0.181094,-0.436038,-0.041056,-0.053919,-0.623656,-0.779837,0.094660,0.117995,-0.101266,25.507051,19.824677,-30.034363,,,,,,,
1504199062.451246,-0.073080,0.672044,2.214988,-0.122436,-0.416313,-0.004698,-0.057138,-0.622587,-0.780462,0.094735,0.118665,-0.085581,25.206377,20.048477,-30.111755,,,,,,,
1504199062.461255,-0.076950,0.671309,2.215268,-0.054914,-0.350847,0.039067,-0.060193,-0.622012,-0.780691,0.093244,0.115954,-0.072672,25.206377,20.048477,-30.111755,,,,,,,
1504199062.471265,-0.080343,0.671167,2.216253,0.005368,-0.252296,0.090233,-0.062849,-0.621900,-0.780570,0.085889,0.116682,-0.069848,24.905245,20.272888,-30.489197,,,,,,,
1504199062.481275,-0.083012,0.671505,2.217910,0.055160,-0.134472,0.136010,-0.064914,-0.622165,-0.780190,0.075076,0.122745,-0.068351,24.905245,20.272888,-30.489197,,,,,,,
1504199062.491285,-0.084873,0.672226,2.220020,0.093214,-0.028254,0.163641,-0.066328,-0.622729,-0.779621,0.068129,0.130236,-0.068233,24.906420,19.897583,-30.336395,,,,,,,
1504199062.501294,-0.085986,0.673239,2.222375,0.123690,0.055663,0.177422,-0.067142,-0.623522,-0.778918,0.063739,0.136553,-0.072050,24.906420,19.897583,-30.336395,,,,,,,
1504199062.511304,-0.086416,0.674672,2.224773,0.172259,0.121337,0.170986,-0.067400,-0.624641,-0.777998,0.058946,0.145424,-0.079226,25.056231,19.749008,-30.709900,,,,,,,
1504199062.521314,-0.086509,0.676601,2.227004,0.217279,0.134840,0.150760,-0.067367,-0.626147,-0.776789,0.059982,0.174242,-0.071508,25.056231,19.749008,-30.709900,,,,,,,
1504199062.531324,-0.086399,0.678896,2.228935,0.249378,0.128212,0.122007,-0.067158,-0.627934,-0.775364,0.052754,0.180729,-0.091061,25.281496,19.600159,-30.783234,,,,,,,
1504199062.541333,-0.086128,0.681431,2.230408,0.263356,0.116417,0.081491,-0.066811,-0.629905,-0.773793,0.048409,0.179069,-0.102580,25.281496,19.600159,-30.783234,,,,,,,
1504199062.551343,-0.085549,0.684030,2.231296,0.263578,0.114334,0.033462,-0.066223,-0.631921,-0.772198,0.046905,0.179208,-0.111408,25.057512,19.373550,-30.482056,,,,,,,
1504199062.561353,-0.084526,0.686552,2.231522,0.249994,0.118760,-0.016737,-0.065297,-0.633874,-0.770675,0.044042,0.181512,-0.107743,25.057512,19.373550,-30.482056,,,,,,,
1504199062.571363,-0.082914,0.688895,2.231011,0.223701,0.131822,-0.072311,-0.063932,-0.635684,-0.769297,0.038999,0.186359,-0.104116,25.057695,19.298553,-30.481506,,,,,,,
1504199062.581373,-0.080711,0.690960,2.229760,0.188852,0.142822,-0.126828,-0.062131,-0.637278,-0.768126,0.038312,0.186808,-0.104723,25.057695,19.298553,-30.481506,,,,,,,
1504199062.591382,-0.077993,0.692748,2.227810,0.159259,0.147379,-0.175988,-0.059954,-0.638654,-0.767155,0.040179,0.183881,-0.102291,25.284426,18.923523,-29.953156,,,,,,,
1504199062.601392,-0.074921,0.694351,2.225290,0.142358,0.145426,-0.213373,-0.057520,-0.639887,-0.766313,0.042124,0.179423,-0.100005,25.284426,18.923523,-29.953156,,,,,,,
1504199062.611402,-0.071590,0.695849,2.222379,0.131834,0.147670,-0.239013,-0.054899,-0.641037,-0.765544,0.043272,0.166596,-0.095418,25.433702,19.074646,-30.178894,,,,,,,
1504199062.621412,-0.067966,0.697390,2.219226,0.139541,0.166805,-0.256112,-0.052057,-0.642219,-0.764751,0.043513,0.155891,-0.084767,25.433702,19.074646,-30.178894,,,,,,,
1504199062.631421,-0.063884,0.699059,2.215960,0.154848,0.210373,-0.260431,-0.048866,-0.643498,-0.763886,0.047478,0.157521,-0.068801,25.284197,18.923813,-30.103149,,,,,,,
1504199062.641431,-0.059246,0.700876,2.212699,0.169169,0.266732,-0.260506,-0.045254,-0.644888,-0.762936,0.043515,0.161825,-0.051212,25.284197,18.923813,-30.103149,,,,,,,
1504199062.651441,-0.054048,0.702755,2.209425,0.174921,0.318899,-0.260588,-0.041222,-0.646322,-0.761950,0.040062,0.160131,-0.043088,25.508791,19.000122,-30.253174,,,,,,,
1504199062.661451,-0.048483,0.704527,2.206104,0.160217,0.346728,-0.262797,-0.036926,-0.647674,-0.761023,0.050597,0.155379,-0.056864,25.508791,19.000122,-30.253174,,,,,,,
1504199062.671386,-0.042715,0.706115,2.202783,0.144327,0.364968,-0.256453,-0.032491,-0.648883,-0.760194,0.058782,0.145739,-0.077315,25.734270,19.075241,-29.803162,,,,,,,
1504199062.681396,-0.036851,0.707699,2.199650,0.151909,0.390461,-0.238339,-0.027996,-0.650087,-0.759344,0.061260,0.141542,-0.086268,25.734270,19.075241,-29.803162,,,,,,,
1504199062.691406,-0.030856,0.709497,2.196840,0.179787,0.424303,-0.211665,-0.023406,-0.651452,-0.758329,0.056304,0.143884,-0.072970,25.959124,19.225952,-29.653748,,,,,,,
1504199062.701416,-0.022033,0.706423,2.192531,0.221270,0.435682,-0.182803,-0.016759,-0.649117,-0.760504,0.056676,0.143777,-0.066370,25.959124,19.225952,-29.653748,,,,,,,
1504199062.711426,-0.016609,0.708964,2.190505,0.258135,0.395917,-0.150647,-0.012606,-0.651048,-0.758932,0.062640,0.141236,-0.071329,26.260317,18.926697,-29.350708,,,,,,,
1504199062.721436,-0.012300,0.711734,2.188923,0.278533,0.300873,-0.114153,-0.009313,-0.653148,-0.757173,0.068060,0.130611,-0.091994,26.260317,18.926697,-29.350708,,,,,,,
1504199062.731446,-0.009428,0.714533,2.187807,0.276387,0.187901,-0.078733,-0.007122,-0.655265,-0.755365,0.078152,0.119178,-0.120977,26.635469,18.778687,-29.498718,,,,,,,
1504199062.741455,-0.002670,0.710391,2.183793,0.265877,0.105977,-0.047675,-0.002024,-0.652130,-0.758104,0.076350,0.106888,-0.128233,26.635469,18.778687,-29.498718,,,,,,,
1504199062.751465,-0.001616,0.712953,2.183403,0.251657,0.076234,-0.025232,-0.001222,-0.654071,-0.756433,0.076601,0.108355,-0.121100,26.861101,18.704102,-29.197540,,,,,,,
1504199062.761475,-0.000575,0.715291,2.183241,0.226171,0.102001,-0.008243,-0.000434,-0.655837,-0.754902,0.078055,0.110000,-0.104961,26.861101,18.704102,-29.197540,,,,,,,
1504199062.771485,0.000741,0.717285,2.183314,0.189133,0.151305,0.009752,0.000558,-0.657341,-0.753593,0.071158,0.107673,-0.091164,26.786226,18.703613,-29.122742,,,,,,,
1504199062.781493,0.007349,0.713394,2.180412,0.141473,0.212500,0.021279,0.005557,-0.654404,-0.756125,0.064405,0.097000,-0.076685,26.786226,18.703613,-29.122742,,,,,,,
1504199062.791503,0.009609,0.714410,2.180865,0.088482,0.268329,0.039234,0.007259,-0.655171,-0.755445,0.067127,0.095326,-0.066851,26.861071,18.853653,-28.973663,,,,,,,
1504199062.801513,0.012139,0.714908,2.181595,0.036418,0.309227,0.061487,0.009167,-0.655548,-0.755098,0.067646,0.095901,-0.068693,26.861071,18.853653,-28.973663,,,,,,,
1504199062.811523,0.014742,0.715027,2.182641,0.003446,0.336115,0.083798,0.011131,-0.655638,-0.754993,0.070595,0.093901,-0.073162,27.011263,18.779327,-28.972717,,,,,,,
1504199062.821532,0.022516,0.710506,2.180580,-0.009434,0.348012,0.105075,0.017066,-0.652217,-0.757840,0.068627,0.082149,-0.069949,27.011263,18.779327,-28.972717,,,,,,,
1504199062.831542,0.025104,0.710407,2.182083,-0.012595,0.359748,0.115723,0.019029,-0.652142,-0.757858,0.067580,0.079998,-0.070572,27.161669,18.704697,-28.821808,,,,,,,
1504199062.841552,0.027846,0.710409,2.183618,0.001437,0.379879,0.115712,0.021108,-0.652144,-0.757802,0.063991,0.082365,-0.064998,27.161669,18.704697,-28.821808,,,,,,,
1504199062.851562,0.030851,0.710588,2.184971,0.019727,0.388271,0.098650,0.023380,-0.652279,-0.757618,0.062343,0.085156,-0.057949,27.312014,18.704926,-28.596436,,,,,,,
1504199062.861572,0.037922,0.706280,2.183468,0.043031,0.367904,0.085897,0.028843,-0.649009,-0.760234,0.061062,0.090415,-0.062138,27.312014,18.704926,-28.596436,,,,,,,
1504199062.871582,0.040806,0.706872,2.184407,0.061062,0.343265,0.067826,0.031020,-0.649459,-0.759764,0.052506,0.108474,-0.075395,27.687685,18.481461,-28.518829,,,,,,,
1504199062.881592,0.043571,0.707641,2.185027,0.079035,0.307977,0.044436,0.033099,-0.650043,-0.759176,0.040372,0.122150,-0.078013,27.687685,18.481461,-28.518829,,,,,,,
1504199062.891602,0.046310,0.708581,2.185284,0.096064,0.285488,0.016753,0.035150,-0.650757,-0.758472,0.032691,0.133941,-0.080731,27.462725,18.555145,-28.369965,,,,,,,
1504199062.901612,0.048202,0.701891,2.185713,0.093810,0.256047,-0.008723,0.036794,-0.645663,-0.762736,0.027263,0.140841,-0.074163,27.462725,18.555145,-28.369965,,,,,,,
1504199062.911621,0.050795,0.702627,2.185306,0.067000,0.224324,-0.032197,0.038747,-0.646225,-0.762163,0.029307,0.144241,-0.084822,28.137682,18.483490,-28.517731,,,,,,,
1504199062.921631,0.053124,0.702883,2.184718,0.013411,0.185353,-0.046097,0.040514,-0.646420,-0.761905,0.034025,0.136990,-0.099621,28.137682,18.483490,-28.517731,,,,,,,
1504199062.931610,0.054975,0.702511,2.184062,-0.052096,0.128357,-0.052514,0.041937,-0.646137,-0.762069,0.042352,0.125659,-0.118852,28.063021,18.482697,-28.292908,,,,,,,
1504199062.941619,0.057577,0.694297,2.182555,-0.120062,0.053229,-0.041828,0.044224,-0.639845,-0.767230,0.054470,0.104521,-0.131940,28.063021,18.482697,-28.292908,,,,,,,
1504199062.951629,0.057807,0.692726,2.182315,-0.165409,-0.001829,-0.022596,0.044458,-0.638637,-0.768223,0.066763,0.086452,-0.139736,27.912828,18.557022,-28.293823,,,,,,,
1504199062.961639,0.058833,0.691149,2.182298,-0.152474,0.160016,-0.003646,0.045306,-0.637423,-0.769181,0.072187,0.092593,-0.100707,27.912828,18.557022,-28.293823,,,,,,,
1504199062.971648,0.060521,0.689773,2.182780,-0.133049,0.214157,0.038988,0.046657,-0.636362,-0.769978,0.076619,0.108286,0.064397,28.362444,18.709045,-28.293854,,,,,,,
1504199062.981658,0.062784,0.688494,2.183623,-0.130373,0.297227,0.063397,0.048450,-0.635375,-0.770683,0.055005,0.095748,0.033027,28.362444,18.709045,-28.293854,,,,,,,
1504199062.991668,0.068254,0.685967,2.182266,-0.117433,0.193819,0.079592,0.052774,-0.633422,-0.772005,0.041998,0.069259,0.020647,28.287447,18.708710,-28.294037,,,,,,,
1504199063.001678,0.068279,0.684855,2.183377,-0.117651,0.031851,0.077742,0.052842,-0.632560,-0.772706,0.064208,0.060051,-0.045790,28.287447,18.708710,-28.294037,,,,,,,
1504199063.011688,0.066782,0.683688,2.184529,-0.124140,-0.109824,0.082250,0.051734,-0.631657,-0.773520,0.094185,0.074314,-0.096506,28.062304,18.857407,-28.145721,,,,,,,
1504199063.021698,0.064433,0.682553,2.185615,-0.116072,-0.174881,0.071705,0.049963,-0.630776,-0.774354,0.093943,0.084435,-0.125121,28.062304,18.857407,-28.145721,,,,,,,
1504199063.031708,0.066885,0.675363,2.183560,-0.093307,-0.137688,0.041770,0.052163,-0.625180,-0.778735,0.084632,0.106565,-0.115262,28.211931,19.008072,-28.146484,,,,,,,
1504199063.041718,0.065587,0.674535,2.183824,-0.082202,-0.105774,0.005442,0.051186,-0.624534,-0.779319,0.071494,0.152122,-0.071527,28.211931,19.008072,-28.146484,,,,,,,
1504199063.051727,0.064685,0.673617,2.183532,-0.095916,-0.114139,-0.039398,0.050521,-0.623817,-0.779936,0.048280,0.155173,-0.056963,27.837114,18.931396,-28.146851,,,,,,,
1504199063.061737,0.063503,0.672328,2.182633,-0.134749,-0.199014,-0.090551,0.049650,-0.622809,-0.780797,0.040057,0.145133,-0.068920,27.837114,18.931396,-28.146851,,,,,,,
1504199063.071747,0.061549,0.663355,2.181142,-0.188816,-0.311518,-0.144881,0.048466,-0.615764,-0.786439,0.038311,0.127239,-0.092025,28.060762,19.382706,-28.299652,,,,,,,
1504199063.081757,0.059054,0.660949,2.178982,-0.244748,-0.400514,-0.197124,0.046590,-0.613866,-0.788034,0.049052,0.127981,-0.108878,28.060762,19.382706,-28.299652,,,,,,,
1504199063.091767,0.056601,0.657892,2.176285,-0.307548,-0.408477,-0.239915,0.044763,-0.611450,-0.790016,0.054053,0.134170,-0.104973,27.611101,19.155975,-28.449066,,,,,,,
1504199063.101775,0.054872,0.654258,2.173139,-0.362336,-0.345116,-0.277480,0.043519,-0.608571,-0.792305,0.051207,0.132085,-0.087013,27.611101,19.155975,-28.449066,,,,,,,
1504199063.111785,0.055140,0.646545,2.169014,-0.400020,-0.266985,-0.307575,0.043989,-0.602432,-0.796957,0.043932,0.125900,-0.052347,27.459902,19.455902,-28.751709,,,,,,,
1504199063.121795,0.055238,0.642095,2.165223,-0.434619,-0.205935,-0.332293,0.044215,-0.598875,-0.799621,0.039846,0.122465,-0.025635,27.459902,19.455902,-28.751709,,,,,,,
1504199063.131805,0.055647,0.637337,2.161340,-0.463256,-0.188643,-0.338778,0.044699,-0.595058,-0.802439,0.043832,0.117198,-0.017385,27.534594,19.531387,-28.827057,,,,,,,
1504199063.141814,0.056175,0.632320,2.157404,-0.487676,-0.177779,-0.345244,0.045290,-0.591017,-0.805386,0.043089,0.108123,-0.013461,27.534594,19.531387,-28.827057,,,,,,,
1504199063.151824,0.057707,0.626063,2.152842,-0.507841,-0.171191,-0.359171,0.046737,-0.585959,-0.808992,0.048982,0.108847,-0.006911,27.382784,19.981613,-29.280823,,,,,,,
1504199063.161834,0.058568,0.620664,2.148563,-0.522558,-0.160386,-0.385901,0.047617,-0.581575,-0.812098,0.060858,0.114428,-0.007620,27.382784,19.981613,-29.280823,,,,,,,
1504199063.171844,0.059727,0.615048,2.143922,-0.545774,-0.149503,-0.420117,0.048753,-0.576998,-0.815289,0.070327,0.111406,-0.012393,27.306780,20.206879,-29.582733,,,,,,,
1504199063.181823,0.061123,0.609062,2.138819,-0.580813,-0.155562,-0.463930,0.050101,-0.572099,-0.818653,0.070703,0.099625,-0.029629,27.306780,20.206879,-29.582733,,,,,,,
1504199063.191833,0.066720,0.599553,2.130841,-0.607800,-0.209567,-0.496996,0.055042,-0.564273,-0.823751,0.069958,0.083973,-0.045130,27.605455,20.733231,-29.585907,,,,,,,
1504199063.201843,0.067108,0.593057,2.125182,-0.617005,-0.303248,-0.512857,0.055607,-0.558899,-0.827369,0.066158,0.077652,-0.063439,27.605455,20.733231,-29.585907,,,,,,,
1504199063.211853,0.066489,0.586589,2.119495,-0.610311,-0.401336,-0.514808,0.055334,-0.553523,-0.830993,0.067103,0.084743,-0.068009,27.378801,21.257660,-29.815430,,,,,,,
1504199063.221863,0.065014,0.580254,2.113855,-0.597025,-0.471779,-0.510391,0.054334,-0.548237,-0.834556,0.066042,0.094929,-0.066765,27.378801,21.257660,-29.815430,,,,,,,
1504199063.231873,0.063649,0.573665,2.108048,-0.591665,-0.468620,-0.511456,0.053424,-0.542714,-0.838217,0.063672,0.091328,-0.060694,27.377031,21.559006,-30.492676,,,,,,,
1504199063.241883,0.062509,0.567388,2.102405,-0.598557,-0.397167,-0.512662,0.052680,-0.537431,-0.841661,0.063623,0.092103,-0.043166,27.377031,21.559006,-30.492676,,,,,,,
1504199063.251892,0.062341,0.561022,2.096802,-0.606233,-0.288415,-0.510732,0.052751,-0.532052,-0.845067,0.051620,0.097603,-0.033030,27.150560,22.008453,-30.721588,,,,,,,
1504199063.261902,0.063216,0.554695,2.091327,-0.596862,-0.176616,-0.499171,0.053702,-0.526684,-0.848363,0.032419,0.098797,-0.018946,27.150560,22.008453,-30.721588,,,,,,,
1504199063.271912,0.064835,0.548515,2.086091,-0.543992,-0.089695,-0.478952,0.055285,-0.521420,-0.851507,0.008604,0.101910,-0.003504,27.373568,22.759613,-30.801697,,,,,,,
1504199063.281922,0.067159,0.543413,2.080933,-0.455939,-0.015834,-0.473593,0.057441,-0.517061,-0.854019,-0.006523,0.123186,0.001953,27.373568,22.759613,-30.801697,,,,,,,
1504199063.291930,0.070344,0.539290,2.075508,-0.353875,0.055814,-0.500228,0.060310,-0.513527,-0.855951,-0.006416,0.141213,-0.005133,27.522127,23.285446,-30.880249,,,,,,,
1504199063.301940,0.074492,0.536146,2.069475,-0.250670,0.120021,-0.553532,0.063981,-0.510826,-0.857300,-0.005768,0.134270,-0.025162,27.522127,23.285446,-30.880249,,,,,,,
1504199063.311950,0.078154,0.530789,2.063385,-0.159339,0.167243,-0.614294,0.067332,-0.506214,-0.859775,-0.008204,0.111423,-0.039868,27.746218,23.511902,-31.106415,,,,,,,
1504199063.321960,0.083680,0.529222,2.055862,-0.086469,0.169902,-0.673947,0.072148,-0.504862,-0.860179,-0.012166,0.108210,-0.051991,27.746218,23.511902,-31.106415,,,,,,,
1504199063.331969,0.089258,0.528041,2.047682,-0.048110,0.132342,-0.723982,0.076999,-0.503842,-0.860357,-0.005084,0.127530,-0.070063,27.895021,24.037430,-31.034973,,,,,,,
1504199063.341980,0.094384,0.527014,2.039006,-0.029329,0.053376,-0.765439,0.081456,-0.502955,-0.860466,0.000880,0.148173,-0.086007,27.895021,24.037430,-31.034973,,,,,,,
1504199063.351990,0.098180,0.524962,2.029984,-0.013198,-0.089511,-0.808922,0.084823,-0.501180,-0.861176,0.005418,0.161763,-0.100036,28.045015,24.038101,-31.034607,,,,,,,
1504199063.362000,0.100849,0.524069,2.020374,-0.004741,-0.254712,-0.843840,0.087166,-0.500408,-0.861391,0.010811,0.161968,-0.125761,28.045015,24.038101,-31.034607,,,,,,,
1504199063.372009,0.102217,0.523092,2.010354,-0.012079,-0.396336,-0.883097,0.088394,-0.499561,-0.861757,0.006683,0.153934,-0.135268,28.043627,24.637955,-30.964081,,,,,,,
1504199063.382019,0.102832,0.521865,1.999808,-0.033864,-0.483483,-0.933149,0.088987,-0.498498,-0.862311,0.013582,0.155999,-0.139352,28.043627,24.637955,-30.964081,,,,,,,
1504199063.392029,0.103203,0.520304,1.988890,-0.049913,-0.506765,-0.961956,0.089387,-0.497144,-0.863052,0.021331,0.159756,-0.135361,27.818102,24.936646,-30.816895,,,,,,,
1504199063.402039,0.103987,0.518834,1.977772,-0.044072,-0.453516,-0.978051,0.090139,-0.495868,-0.863707,0.004984,0.159137,-0.110277,27.818102,24.936646,-30.816895,,,,,,,
1504199063.412049,0.105771,0.517584,1.966531,-0.013331,-0.350397,-0.986719,0.091746,-0.494782,-0.864160,-0.008189,0.156220,-0.075094,27.666246,25.312164,-31.420135,,,,,,,
1504199063.422058,0.108701,0.516694,1.955103,0.026006,-0.243081,-1.000716,0.094325,-0.494009,-0.864325,-0.008418,0.164327,-0.055124,27.666246,25.312164,-31.420135,,,,,,,
1504199063.432068,0.112586,0.515710,1.943365,0.040605,-0.172838,-1.034971,0.097736,-0.493152,-0.864435,-0.006718,0.162891,-0.051260,27.590731,25.387283,-31.645844,,,,,,,
1504199063.442046,0.116688,0.514781,1.931142,0.022409,-0.206742,-1.077639,0.101335,-0.492344,-0.864482,-0.000734,0.139515,-0.071645,27.590731,25.387283,-31.645844,,,,,,,
1504199063.452056,0.119786,0.513370,1.918517,-0.023396,-0.355508,-1.116950,0.104095,-0.491116,-0.864852,0.006439,0.108654,-0.111268,27.589739,25.687576,-31.798126,,,,,,,
1504199063.462066,0.120877,0.511353,1.905627,-0.080527,-0.579849,-1.145473,0.105158,-0.489358,-0.865720,0.012045,0.089394,-0.139193,27.589739,25.687576,-31.798126,,,,,,,
1504199063.472076,0.119781,0.508711,1.892604,-0.132332,-0.797853,-1.162257,0.104364,-0.487051,-0.867115,0.022528,0.087958,-0.145488,27.363955,26.136124,-31.577057,,,,,,,
1504199063.482085,0.116890,0.505809,1.879588,-0.157064,-0.955358,-1.162022,0.102020,-0.484515,-0.868813,0.027908,0.097903,-0.125648,27.363955,26.136124,-31.577057,,,,,,,
1504199063.492095,0.112859,0.502899,1.866730,-0.155706,-1.041701,-1.144789,0.098676,-0.481968,-0.870615,0.028063,0.102268,-0.091940,27.062761,26.435379,-31.880035,,,,,,,
1504199063.502105,0.108315,0.500489,1.854294,-0.102650,-1.047517,-1.095586,0.094844,-0.479854,-0.872207,0.017964,0.093975,-0.057176,27.062761,26.435379,-31.880035,,,,,,,
1504199063.512115,0.104080,0.498975,1.842481,-0.009449,-0.958843,-1.029402,0.091225,-0.478526,-0.873322,-0.002083,0.096248,-0.006912,26.685381,27.109589,-32.336029,,,,,,,
1504199063.522125,0.102545,0.498291,1.830923,0.041527,-0.580987,-1.018239,0.089918,-0.477925,-0.873786,-0.010450,0.108494,0.036994,26.685381,27.109589,-32.336029,,,,,,,
1504199063.532135,0.107205,0.497438,1.819322,0.011590,0.078866,-1.018387,0.094033,-0.477176,-0.873763,-0.017540,0.152621,0.152419,26.459261,27.334320,-32.713287,,,,,,,
1504199063.542145,0.116045,0.496448,1.808362,0.012873,0.411258,-0.957062,0.101808,-0.476306,-0.873366,-0.048158,0.140261,0.296446,26.459261,27.334320,-32.713287,,,,,,,
1504199063.552155,0.125366,0.495422,1.797570,0.004311,0.409196,-0.954938,0.110005,-0.475403,-0.872864,-0.036274,0.055389,0.245423,26.682940,27.860336,-32.716675,,,,,,,
1504199063.562165,0.134039,0.493702,1.786521,-0.062407,0.309626,-1.000776,0.117680,-0.473889,-0.872686,-0.016483,0.020352,0.146383,26.682940,27.860336,-32.716675,,,,,,,
1504199063.572174,0.141044,0.491028,1.775034,-0.149130,0.107928,-1.049672,0.123967,-0.471532,-0.873092,-0.009053,0.006033,0.098037,26.832445,28.235413,-32.419098,,,,,,,
1504199063.582184,0.146257,0.487284,1.763313,-0.243266,-0.078805,-1.085797,0.128774,-0.468228,-0.874174,-0.009068,0.017452,0.037092,26.832445,28.235413,-32.419098,,,,,,,
1504199063.592194,0.149649,0.482901,1.751385,-0.274369,-0.249017,-1.112236,0.132042,-0.464350,-0.875753,-0.004815,0.053813,0.026403,27.131502,28.611771,-32.421173,,,,,,,
1504199063.602204,0.150441,0.478691,1.738918,-0.254524,-0.601840,-1.163882,0.133028,-0.460618,-0.877573,0.053465,0.206238,-0.037100,27.131502,28.611771,-32.421173,,,,,,,
1504199063.612212,0.149352,0.474187,1.726932,-0.293456,-0.643117,-1.125450,0.132380,-0.456615,-0.879760,0.081899,0.158184,-0.184571,26.680040,29.060196,-32.650665,,,,,,,
1504199063.622222,0.147580,0.470497,1.715197,-0.170003,-0.774207,-1.058826,0.131067,-0.453330,-0.881654,0.073690,-0.094781,-0.089339,26.680040,29.060196,-32.650665,,,,,,,
1504199063.632232,0.142326,0.468187,1.705220,-0.078901,-1.003195,-0.866132,0.126582,-0.451270,-0.883364,0.119390,0.057715,-0.142545,26.453722,29.359924,-33.028503,,,,,,,
1504199063.642242,0.135536,0.467687,1.696983,0.093617,-1.065542,-0.686400,0.120611,-0.450823,-0.884427,0.076487,-0.022215,-0.124774,26.453722,29.359924,-33.028503,,,,,,,
1504199063.652251,0.127658,0.469551,1.690612,0.317798,-1.062263,-0.491750,0.113533,-0.452486,-0.884515,0.031288,-0.104216,-0.037177,25.927446,29.733017,-33.257599,,,,,,,
1504199063.662261,0.119803,0.474309,1.685412,0.612074,-1.015788,-0.377110,0.106323,-0.456724,-0.883232,0.038712,-0.022036,-0.036812,25.927446,29.733017,-33.257599,,,,,,,
1504199063.672282,0.110188,0.481057,1.680910,0.681437,-1.223182,-0.283760,0.097485,-0.462716,-0.881130,0.004444,-0.019904,-0.062428,25.252367,29.804840,-33.184814,,,,,,,
1504199063.682292,0.100741,0.484545,1.677633,0.244158,-1.042735,-0.242140,0.088994,-0.465806,-0.880400,-0.003575,0.002809,-0.084871,25.252367,29.804840,-33.184814,,,,,,,
1504199063.692271,0.092097,0.483499,1.674575,-0.152286,-1.019167,-0.296238,0.081425,-0.464880,-0.881622,0.058757,0.139684,0.148361,24.427263,29.577026,-33.635193,,,,,,,
1504199063.702281,0.082142,0.479816,1.670399,-0.393377,-1.239738,-0.443569,0.072785,-0.461616,-0.884089,-0.024231,0.177009,0.147242,24.427263,29.577026,-33.635193,,,,,,,
1504199063.712290,0.072574,0.474015,1.664043,-0.576766,-1.230536,-0.668057,0.064516,-0.456462,-0.887401,-0.104051,0.137141,0.088603,23.827089,29.425079,-34.010529,,,,,,,
1504199063.722300,0.065123,0.466897,1.654717,-0.666491,-1.152779,-0.951211,0.058112,-0.450118,-0.891076,-0.137992,0.058394,0.222619,23.827089,29.425079,-34.010529,,,,,,,
1504199063.732310,0.059329,0.459891,1.642151,-0.608440,-1.136986,-1.227596,0.053133,-0.443851,-0.894524,-0.142672,0.002154,0.265099,23.074648,30.172455,-34.393036,,,,,,,
1504199063.742320,0.054696,0.453983,1.627749,-0.480508,-1.084646,-1.337409,0.049131,-0.438548,-0.897364,-0.119154,-0.047459,0.233896,23.074648,30.172455,-34.393036,,,,,,,
1504199063.752330,0.050043,0.450008,1.613443,-0.272822,-1.097068,-1.283657,0.045042,-0.434973,-0.899316,-0.025709,-0.095453,0.232935,22.247393,30.844498,-34.775146,,,,,,,
1504199063.762339,0.044158,0.448356,1.600273,-0.057493,-1.179952,-1.163588,0.039781,-0.433485,-0.900283,0.089690,-0.145129,0.205077,22.247393,30.844498,-34.775146,,,,,,,
1504199063.772349,0.036967,0.448692,1.587614,0.123899,-1.299748,-1.143850,0.033300,-0.433788,-0.900400,0.163584,-0.103520,0.187753,21.270739,31.365570,-35.006500,,,,,,,
1504199063.782359,0.028339,0.450675,1.573739,0.267878,-1.526697,-1.281962,0.025506,-0.435573,-0.899792,0.173728,0.006954,0.199993,21.270739,31.365570,-35.006500,,,,,,,
1504199063.792369,0.017937,0.453464,1.557541,0.319987,-1.826318,-1.514037,0.016123,-0.438082,-0.898790,0.155050,0.087527,0.176424,20.369921,31.512115,-35.309845,,,,,,,
1504199063.802378,0.006131,0.456096,1.538124,0.265011,-2.088748,-1.822149,0.005504,-0.440446,-0.897762,0.160603,0.119844,0.168957,20.369921,31.512115,-35.309845,,,,,,,
1504199063.812388,-0.005566,0.457640,1.514891,0.109972,-2.213916,-2.170170,-0.004993,-0.441832,-0.897084,0.172428,0.107482,0.198002,19.094469,31.506989,-35.613007,,,,,,,
1504199063.822398,-0.015784,0.456989,1.487857,-0.169932,-2.203799,-2.509039,-0.014164,-0.441248,-0.897274,0.194630,0.111673,0.222469,19.094469,31.506989,-35.613007,,,,,,,
1504199063.832408,-0.023911,0.453190,1.457154,-0.516837,-2.149470,-2.820350,-0.021495,-0.437836,-0.898798,0.192623,0.139343,0.182123,17.367678,31.950134,-36.070648,,,,,,,
1504199063.842417,-0.030050,0.446445,1.423710,-0.835910,-2.025138,-3.037805,-0.027101,-0.431762,-0.901580,0.120195,0.144744,0.149551,17.367678,31.950134,-36.070648,,,,,,,
1504199063.852427,-0.033646,0.436842,1.388703,-1.125812,-1.793523,-3.156130,-0.030481,-0.423080,-0.905579,0.014505,0.093444,0.151093,15.489840,32.767746,-36.606445,,,,,,,
1504199063.862437,-0.034668,0.425798,1.352953,-1.223688,-1.529451,-3.217607,-0.031567,-0.413048,-0.910162,-0.040821,0.037453,0.138861,15.489840,32.767746,-36.606445,,,,,,,
1504199063.872447,-0.033545,0.415785,1.317096,-1.058527,-1.300622,-3.235871,-0.030681,-0.403908,-0.914285,-0.074498,-0.010139,0.167917,14.437624,33.737717,-36.466370,,,,,,,
1504199063.882456,-0.031052,0.408065,1.281787,-0.815087,-1.116195,-3.189876,-0.028498,-0.396834,-0.917448,-0.120214,-0.031709,0.194395,14.437624,33.737717,-36.466370,,,,,,,
1504199063.892466,-0.027240,0.402607,1.247878,-0.575016,-0.900924,-3.060684,-0.025059,-0.391818,-0.919701,-0.152599,0.001178,0.187539,13.385408,34.707703,-36.326294,,,,,,,
1504199063.902476,-0.022324,0.399407,1.215790,-0.336264,-0.713868,-2.905767,-0.020565,-0.388872,-0.921062,-0.174259,0.022280,0.178096,13.385408,34.707703,-36.326294,,,,,,,
1504199063.912486,-0.016285,0.397856,1.185089,-0.172227,-0.549094,-2.801168,-0.015013,-0.387443,-0.921772,-0.200152,0.016761,0.162006,12.483675,35.303955,-36.483002,,,,,,,
1504199063.922496,-0.009425,0.397338,1.155415,-0.060838,-0.437155,-2.707241,-0.008691,-0.386965,-0.922054,-0.229377,0.035174,0.139033,12.483675,35.303955,-36.483002,,,,,,,
1504199063.932505,-0.002404,0.397768,1.127110,0.058388,-0.387128,-2.572630,-0.002216,-0.387362,-0.921925,-0.247830,0.072970,0.103718,11.808901,35.300629,-36.334686,,,,,,,
1504199063.942515,0.004071,0.399351,1.100276,0.197379,-0.401199,-2.438939,0.003751,-0.388820,-0.921306,-0.254895,0.084514,0.074443,11.808901,35.300629,-36.334686,,,,,,,
1504199063.952494,0.009537,0.402583,1.074973,0.391439,-0.454106,-2.284803,0.008775,-0.391796,-0.920010,-0.259690,0.097424,0.045239,11.283464,35.523117,-36.262634,,,,,,,
1504199063.962504,0.013825,0.407973,1.051508,0.621602,-0.510537,-2.101779,0.012690,-0.396750,-0.917839,-0.247553,0.104483,0.021553,11.283464,35.523117,-36.262634,,,,,,,
1504199063.972514,0.017013,0.415469,1.029812,0.825222,-0.561404,-1.935889,0.015565,-0.403619,-0.914795,-0.217057,0.100488,0.003219,10.834368,35.295639,-36.037048,,,,,,,
1504199063.982524,0.019439,0.424146,1.009362,0.915076,-0.597424,-1.825728,0.017715,-0.411542,-0.911218,-0.182602,0.112287,-0.027701,10.834368,35.295639,-36.037048,,,,,,,
1504199063.992533,0.021553,0.432938,0.989512,0.910401,-0.617683,-1.776600,0.019563,-0.419539,-0.907526,-0.150285,0.129287,-0.061041,10.235353,34.768402,-36.259613,,,,,,,
1504199064.002543,0.023549,0.441265,0.969939,0.856803,-0.627932,-1.742517,0.021291,-0.427084,-0.903961,-0.129537,0.136770,-0.089233,10.235353,34.768402,-36.259613,,,,,,,
1504199064.012553,0.025419,0.449141,0.950882,0.824418,-0.638383,-1.683848,0.022896,-0.434192,-0.900530,-0.113442,0.136950,-0.101302,9.261568,34.239166,-36.333069,,,,,,,
1504199064.022563,0.027087,0.456669,0.932039,0.783619,-0.665760,-1.676399,0.024308,-0.440961,-0.897197,-0.102006,0.110166,-0.092000,9.261568,34.239166,-36.333069,,,,,,,
1504199064.032572,0.028612,0.463346,0.912437,0.686365,-0.737334,-1.758631,0.025592,-0.446944,-0.894196,-0.113375,0.077910,-0.079666,8.512545,33.711243,-36.556000,,,,,,,
1504199064.042582,0.030028,0.468352,0.892208,0.505937,-0.773108,-1.793037,0.026791,-0.451416,-0.891911,-0.126080,0.088455,-0.099696,8.512545,33.711243,-36.556000,,,,,,,
1504199064.052592,0.031187,0.471640,0.872202,0.349806,-0.797431,-1.760176,0.027778,-0.454348,-0.890391,-0.125495,0.098116,-0.118322,7.914553,33.182632,-36.103516,,,,,,,
1504199064.062602,0.031725,0.473878,0.852992,0.257410,-0.825528,-1.677029,0.028224,-0.456340,-0.889358,-0.141506,0.051906,-0.113572,7.914553,33.182632,-36.103516,,,,,,,
1504199064.072612,0.031532,0.475653,0.835169,0.225820,-0.825403,-1.546860,0.028027,-0.457919,-0.888552,-0.159299,0.013644,-0.098173,7.466768,32.430176,-35.873962,,,,,,,
1504199064.082621,0.030820,0.477646,0.818943,0.251846,-0.811922,-1.395268,0.027366,-0.459690,-0.887658,-0.167228,-0.000362,-0.074852,7.466768,32.430176,-35.873962,,,,,,,
1504199064.092631,0.029605,0.479950,0.804214,0.275892,-0.795202,-1.269302,0.026256,-0.461735,-0.886629,-0.164424,-0.003582,-0.061018,6.717714,32.051804,-35.872986,,,,,,,
1504199064.102641,0.028020,0.482465,0.790682,0.287247,-0.778353,-1.165774,0.024818,-0.463964,-0.885506,-0.149864,0.015646,-0.053489,6.717714,32.051804,-35.872986,,,,,,,
1504199064.112651,0.026192,0.484993,0.778150,0.283967,-0.742173,-1.092193,0.023168,-0.466202,-0.884375,-0.126699,0.030030,-0.049219,6.193102,31.899445,-35.873169,,,,,,,
1504199064.122660,0.024833,0.487270,0.765987,0.239458,-0.686425,-1.063549,0.021940,-0.468216,-0.883342,-0.104994,0.038330,-0.038045,6.193102,31.899445,-35.873169,,,,,,,
1504199064.132670,0.024180,0.488884,0.754000,0.170654,-0.608086,-1.047795,0.021346,-0.469641,-0.882599,-0.100219,0.051871,-0.026763,5.519014,31.446716,-36.021484,,,,,,,
1504199064.142680,0.024172,0.489972,0.742532,0.122017,-0.518233,-0.992533,0.021326,-0.470601,-0.882088,-0.104959,0.057424,-0.012809,5.519014,31.446716,-36.021484,,,,,,,
1504199064.152690,0.024073,0.490918,0.732205,0.126352,-0.450171,-0.897646,0.021228,-0.471436,-0.881645,-0.118457,0.039979,0.001976,5.294649,31.370102,-35.721466,,,,,,,
1504199064.162699,0.024124,0.492487,0.723005,0.196352,-0.425302,-0.773750,0.021255,-0.472819,-0.880903,-0.133758,0.024592,0.013365,5.294649,31.370102,-35.721466,,,,,,,
1504199064.172709,0.023552,0.494807,0.715185,0.261877,-0.430226,-0.656213,0.020725,-0.474861,-0.879817,-0.134128,0.018257,0.010996,4.994661,31.368759,-35.722198,,,,,,,
1504199064.182719,0.022426,0.497397,0.708310,0.273103,-0.447446,-0.581445,0.019707,-0.477140,-0.878606,-0.130684,0.026365,0.000509,4.994661,31.368759,-35.722198,,,,,,,
1504199064.192729,0.015437,0.497861,0.704616,0.237466,-0.463191,-0.533449,0.013562,-0.477547,-0.878501,-0.118085,0.053551,-0.018258,4.396196,31.065002,-35.196442,,,,,,,
1504199064.202738,0.013444,0.499884,0.698818,0.203001,-0.481060,-0.497186,0.011799,-0.479324,-0.877559,-0.108112,0.071883,-0.031270,4.396196,31.065002,-35.196442,,,,,,,
1504199064.212718,0.011130,0.501722,0.693467,0.186733,-0.489492,-0.457705,0.009758,-0.480936,-0.876701,-0.098382,0.071757,-0.030998,4.021502,30.763916,-35.495087,,,,,,,
1504199064.222727,0.008596,0.503632,0.688480,0.200419,-0.493898,-0.427786,0.007528,-0.482610,-0.875803,-0.092459,0.063634,-0.018240,4.021502,30.763916,-35.495087,,,,,,,
1504199064.232737,0.003902,0.504554,0.684740,0.235413,-0.501661,-0.402098,0.003416,-0.483417,-0.875384,-0.085997,0.063541,-0.004575,3.647676,30.386932,-35.343201,,,,,,,
1504199064.242747,0.001112,0.507284,0.680230,0.288757,-0.494654,-0.390277,0.000972,-0.485805,-0.874067,-0.081645,0.070690,0.006223,3.647676,30.386932,-35.343201,,,,,,,
1504199064.252757,-0.001449,0.510705,0.675808,0.361563,-0.460093,-0.385942,-0.001264,-0.488792,-0.872399,-0.079852,0.074715,0.013757,3.273211,30.309799,-35.118561,,,,,,,
1504199064.262767,-0.003386,0.514855,0.671222,0.425109,-0.398789,-0.407288,-0.002947,-0.492409,-0.870359,-0.076368,0.083062,0.014448,3.273211,30.309799,-35.118561,,,,,,,
1504199064.272776,-0.004749,0.518381,0.666592,0.456044,-0.286041,-0.441594,-0.004125,-0.495475,-0.868613,-0.076289,0.100669,0.004919,3.348955,30.010132,-35.116119,,,,,,,
1504199064.282786,-0.003857,0.523003,0.661155,0.458421,-0.147490,-0.482396,-0.003341,-0.499484,-0.866317,-0.084717,0.101824,-0.002625,3.348955,30.010132,-35.116119,,,,,,,
1504199064.292796,-0.001543,0.527490,0.655396,0.441323,-0.030112,-0.502913,-0.001333,-0.503366,-0.864072,-0.100245,0.092172,-0.014208,3.050249,29.633331,-34.889069,,,,,,,
1504199064.302806,0.001628,0.531745,0.649624,0.420487,0.039313,-0.492398,0.001403,-0.507038,-0.861922,-0.115081,0.079045,-0.030259,3.050249,29.633331,-34.889069,,,,,,,
1504199064.312815,0.000780,0.533511,0.646369,0.386291,0.064074,-0.451945,0.000672,-0.508559,-0.861027,-0.123780,0.053878,-0.043209,2.676378,29.181656,-34.886627,,,,,,,
1504199064.322825,0.003784,0.536884,0.641535,0.319756,0.046456,-0.402928,0.003251,-0.511461,-0.859300,-0.131669,0.036134,-0.056074,2.676378,29.181656,-34.886627,,,,,,,
1504199064.332835,0.006195,0.539383,0.637166,0.228552,0.006673,-0.363522,0.005316,-0.513607,-0.858009,-0.130727,0.035381,-0.069451,2.827547,28.807022,-34.733398,,,,,,,
1504199064.342845,0.007889,0.541018,0.633264,0.145792,-0.043836,-0.323016,0.006763,-0.515009,-0.857158,-0.127353,0.035150,-0.077885,2.827547,28.807022,-34.733398,,,,,,,
1504199064.352854,0.001466,0.537662,0.633548,0.073663,-0.095457,-0.294241,0.001259,-0.512129,-0.858907,-0.115929,0.031065,-0.078654,2.902620,28.732513,-34.807678,,,,,,,
1504199064.362864,0.001924,0.537884,0.630255,0.006094,-0.130081,-0.279353,0.001652,-0.512320,-0.858793,-0.111042,0.031028,-0.078875,2.902620,28.732513,-34.807678,,,,,,,
1504199064.372874,0.002157,0.537581,0.626901,-0.038843,-0.153142,-0.291132,0.001852,-0.512059,-0.858948,-0.110678,0.035970,-0.071350,2.677965,28.506790,-34.956543,,,,,,,
1504199064.382884,0.002247,0.536912,0.623473,-0.075231,-0.169887,-0.295435,0.001931,-0.511485,-0.859290,-0.115105,0.038142,-0.060296,2.677965,28.506790,-34.956543,,,,,,,
1504199064.392894,-0.005053,0.532316,0.623774,-0.122382,-0.181213,-0.289099,-0.004354,-0.507530,-0.861623,-0.110652,0.033882,-0.053172,2.528337,28.580368,-34.582458,,,,,,,
1504199064.402903,-0.005272,0.530603,0.620469,-0.192912,-0.191295,-0.282799,-0.004547,-0.506054,-0.862490,-0.114426,0.031002,-0.052351,2.528337,28.580368,-34.582458,,,,,,,
1504199064.412913,-0.005658,0.527907,0.617264,-0.298697,-0.203224,-0.270153,-0.004888,-0.503726,-0.863849,-0.116481,0.027210,-0.056408,2.603518,28.505707,-34.581726,,,,,,,
1504199064.422923,-0.006222,0.524003,0.614331,-0.423660,-0.204351,-0.245817,-0.005387,-0.500350,-0.865807,-0.114943,0.020278,-0.053902,2.603518,28.505707,-34.581726,,,,,,,
1504199064.432933,-0.011233,0.518020,0.613759,-0.536949,-0.209848,-0.224655,-0.009759,-0.495160,-0.868747,-0.111854,0.012815,-0.044354,2.528337,28.580368,-34.582458,,,,,,,
1504199064.442942,-0.012138,0.512269,0.611287,-0.582970,-0.213754,-0.202312,-0.010580,-0.490156,-0.871570,-0.115503,0.012968,-0.030209,2.528337,28.580368,-34.582458,,,,,,,
1504199064.452952,-0.013233,0.506707,0.609163,-0.542591,-0.213057,-0.168086,-0.011570,-0.485301,-0.874271,-0.119137,0.006969,-0.009045,2.228411,28.728424,-34.284302,,,,,,,
1504199064.462931,-0.014535,0.501813,0.607512,-0.474452,-0.207264,-0.129552,-0.012743,-0.481016,-0.876619,-0.120268,-0.007235,0.010881,2.228411,28.728424,-34.284302,,,,,,,
1504199064.472941,-0.023908,0.500351,0.609835,-0.410568,-0.213233,-0.125141,-0.020975,-0.479733,-0.877164,-0.110876,-0.005176,0.020978,2.227617,28.953720,-34.436035,,,,,,,
1504199064.482951,-0.025300,0.496661,0.608154,-0.358259,-0.222167,-0.145315,-0.022241,-0.476493,-0.878897,-0.106223,0.001273,0.022360,2.227617,28.953720,-34.436035,,,,,,,
1504199064.492961,-0.026749,0.493639,0.606134,-0.287882,-0.247222,-0.177171,-0.023553,-0.473833,-0.880300,-0.101768,0.009432,0.026952,2.152697,29.102798,-34.137329,,,,,,,
1504199064.502970,-0.028352,0.491462,0.603884,-0.199444,-0.274570,-0.197250,-0.024993,-0.471915,-0.881290,-0.100358,0.017493,0.025455,2.152697,29.102798,-34.137329,,,,,,,
1504199064.512980,-0.036504,0.490626,0.604357,-0.120635,-0.304013,-0.226938,-0.032191,-0.471178,-0.881450,-0.093785,0.021242,0.024593,1.927095,29.252075,-34.289001,,,,,,,
1504199064.522990,-0.038353,0.489954,0.601553,-0.061979,-0.320458,-0.248156,-0.033833,-0.470585,-0.881706,-0.100887,0.030964,0.014488,1.927095,29.252075,-34.289001,,,,,,,
1504199064.533000,-0.040306,0.489946,0.598810,0.006241,-0.321032,-0.236295,-0.035554,-0.470578,-0.881642,-0.109267,0.034452,0.003926,1.552431,29.249954,-34.064911,,,,,,,
1504199064.543009,-0.042021,0.490403,0.596518,0.045977,-0.260667,-0.191502,-0.037058,-0.470982,-0.881364,-0.115789,0.014683,-0.004058,1.552431,29.249954,-34.064911,,,,,,,
1504199064.553019,-0.050632,0.493468,0.598505,0.071063,-0.144884,-0.127599,-0.044572,-0.473683,-0.879567,-0.113890,-0.016124,-0.003627,1.552370,29.324799,-33.990479,,,,,,,
1504199064.563029,-0.050550,0.494290,0.597632,0.078359,0.004178,-0.068075,-0.044480,-0.474407,-0.879181,-0.113707,-0.047810,0.001557,1.552370,29.324799,-33.990479,,,,,,,
1504199064.573039,-0.049299,0.495082,0.597028,0.076049,0.123531,-0.055481,-0.043362,-0.475104,-0.878861,-0.106144,-0.054330,-0.002121,1.553118,29.024796,-33.988220,,,,,,,
1504199064.583049,-0.047292,0.495762,0.596396,0.060507,0.178010,-0.060941,-0.041583,-0.475702,-0.878623,-0.096509,-0.036062,-0.021447,1.553118,29.024796,-33.988220,,,,,,,
1504199064.593058,-0.050136,0.496208,0.597783,0.054935,0.136497,-0.088622,-0.044071,-0.476094,-0.878289,-0.084545,-0.016749,-0.051978,1.478151,29.099167,-33.838959,,,,,,,
1504199064.603068,-0.049026,0.496745,0.596732,0.047722,0.031069,-0.094853,-0.043083,-0.476567,-0.878082,-0.087395,-0.008983,-0.086991,1.478151,29.099167,-33.838959,,,,,,,
1504199064.613078,-0.049362,0.497133,0.595887,0.027247,-0.110516,-0.066886,-0.043369,-0.476907,-0.877883,-0.092831,-0.011343,-0.115754,1.254778,28.498001,-33.760040,,,,,,,
1504199064.623088,-0.051456,0.496928,0.595686,-0.043591,-0.253860,0.001557,-0.045213,-0.476727,-0.877888,-0.100600,-0.035205,-0.133922,1.254778,28.498001,-33.760040,,,,,,,
1504199064.633097,-0.055132,0.495730,0.596313,-0.141964,-0.365020,0.080571,-0.048471,-0.475674,-0.878285,-0.108099,-0.061710,-0.141292,1.254778,28.498001,-33.760040,,,,,,,
1504199064.643107,-0.060003,0.493588,0.597685,-0.226091,-0.435793,0.148864,-0.052809,-0.473789,-0.879054,-0.113130,-0.082516,-0.138265,1.254778,28.498001,-33.760040,,,,,,,
1504199064.653117,-0.065587,0.490850,0.599724,-0.270389,-0.466395,0.210750,-0.057801,-0.471376,-0.880036,-0.107024,-0.090285,-0.126388,1.404329,28.723526,-33.686340,,,,,,,
1504199064.663127,-0.071275,0.487692,0.602128,-0.310932,-0.449040,0.238402,-0.062912,-0.468589,-0.881174,-0.090439,-0.084085,-0.114340,1.404329,28.723526,-33.686340,,,,,,,
1504199064.673098,-0.076537,0.484079,0.604475,-0.358531,-0.402818,0.229699,-0.067677,-0.465393,-0.882513,-0.075130,-0.070602,-0.106546,0.953981,28.946198,-33.539154,,,,,,,
1504199064.683108,-0.080999,0.479967,0.606515,-0.406970,-0.337393,0.206016,-0.071769,-0.461750,-0.884102,-0.065774,-0.056744,-0.102943,0.953981,28.946198,-33.539154,,,,,,,
1504199064.693118,-0.084628,0.475457,0.608102,-0.446813,-0.273090,0.168475,-0.075152,-0.457745,-0.885902,-0.057554,-0.051014,-0.100274,0.278582,29.242722,-33.318054,,,,,,,
1504199064.703128,-0.087325,0.470580,0.609198,-0.488725,-0.201309,0.129849,-0.077734,-0.453403,-0.887909,-0.051935,-0.049313,-0.095687,0.278582,29.242722,-33.318054,,,,,,,
1504199064.713107,-0.089048,0.465409,0.609857,-0.511412,-0.124364,0.095517,-0.079472,-0.448788,-0.890097,-0.045559,-0.048144,-0.082269,0.353319,29.392914,-33.243988,,,,,,,
1504199064.723117,-0.089885,0.460432,0.610052,-0.485058,-0.059531,0.049550,-0.080416,-0.444335,-0.892244,-0.035123,-0.045396,-0.065886,0.353319,29.392914,-33.243988,,,,,,,
1504199064.733126,-0.090687,0.456773,0.609949,-0.420165,0.002865,-0.027296,-0.081278,-0.441055,-0.893792,-0.025579,-0.039323,-0.049338,0.202333,29.916794,-33.023315,,,,,,,
1504199064.743136,-0.089897,0.453487,0.608579,-0.309688,0.021227,-0.114664,-0.080702,-0.438103,-0.895295,-0.025423,-0.030464,-0.034713,0.202333,29.916794,-33.023315,,,,,,,
1504199064.753146,-0.088681,0.451316,0.606392,-0.210012,0.025821,-0.197757,-0.079697,-0.436150,-0.896338,-0.022079,-0.028388,-0.029703,0.277178,30.066833,-32.874237,,,,,,,
1504199064.763156,-0.087256,0.450070,0.603433,-0.127638,0.008168,-0.270166,-0.078467,-0.435029,-0.896991,-0.027124,-0.033920,-0.023404,0.277178,30.066833,-32.874237,,,,,,,
1504199064.773166,-0.088406,0.451799,0.601049,-0.056297,-0.035054,-0.312652,-0.079432,-0.436585,-0.896150,-0.040853,-0.040679,-0.026214,0.501619,30.068588,-33.248688,,,,,,,
1504199064.783175,-0.087712,0.452019,0.597461,0.011495,-0.103799,-0.324154,-0.078801,-0.436782,-0.896109,-0.067378,-0.045502,-0.031961,0.501619,30.068588,-33.248688,,,,,,,
1504199064.793185,-0.087829,0.453042,0.594121,0.100418,-0.175952,-0.299323,-0.078867,-0.437703,-0.895654,-0.099767,-0.044094,-0.039771,0.651278,30.293961,-33.100006,,,,,,,
1504199064.803195,-0.088868,0.455076,0.591473,0.208491,-0.232317,-0.238194,-0.079719,-0.439530,-0.894683,-0.127282,-0.044005,-0.047623,0.651278,30.293961,-33.100006,,,,,,,
1504199064.813205,-0.096693,0.459267,0.592350,0.292135,-0.264045,-0.168595,-0.086538,-0.443291,-0.892191,-0.140635,-0.043479,-0.056601,0.426805,30.217499,-32.875000,,,,,,,
1504199064.823214,-0.098818,0.462590,0.591420,0.328193,-0.247365,-0.098114,-0.088289,-0.446268,-0.890534,-0.148879,-0.047995,-0.064071,0.426805,30.217499,-32.875000,,,,,,,
1504199064.833224,-0.100917,0.465881,0.591291,0.323932,-0.202648,-0.027751,-0.090009,-0.449210,-0.888881,-0.148654,-0.054894,-0.068731,0.352449,29.917313,-32.947937,,,,,,,
1504199064.843234,-0.102792,0.468734,0.591809,0.271782,-0.151129,0.028640,-0.091543,-0.451757,-0.887432,-0.138758,-0.052149,-0.079228,0.352449,29.917313,-32.947937,,,,,,,
1504199064.853244,-0.104314,0.470713,0.592620,0.179196,-0.103509,0.057215,-0.092801,-0.453522,-0.886400,-0.122546,-0.035293,-0.094129,-0.021345,29.615036,-32.646606,,,,,,,
1504199064.863253,-0.105565,0.471734,0.593481,0.088622,-0.082528,0.067695,-0.093861,-0.454431,-0.885823,-0.109615,-0.007254,-0.107204,-0.021345,29.615036,-32.646606,,,,,,,
1504199064.873263,-0.106845,0.472111,0.594429,0.034087,-0.086360,0.085753,-0.094976,-0.454767,-0.885532,-0.104258,0.009470,-0.112698,-0.095976,29.464691,-32.645660,,,,,,,
1504199064.883273,-0.108483,0.471972,0.595725,-0.013276,-0.112653,0.127346,-0.096433,-0.454643,-0.885438,-0.110095,0.012245,-0.115722,-0.095976,29.464691,-32.645660,,,,,,,
1504199064.893283,-0.110658,0.471296,0.597485,-0.062877,-0.147460,0.176422,-0.098393,-0.454042,-0.885531,-0.123989,0.011308,-0.116178,-0.246229,29.613861,-32.572144,,,,,,,
1504199064.903293,-0.113512,0.470009,0.599841,-0.118862,-0.185804,0.238345,-0.100986,-0.452895,-0.885826,-0.133359,0.012221,-0.118919,-0.246229,29.613861,-32.572144,,,,,,,
1504199064.913302,-0.116898,0.468110,0.602798,-0.170566,-0.209949,0.298072,-0.104085,-0.451201,-0.886332,-0.131252,0.013396,-0.112356,-0.170362,29.314056,-32.494690,,,,,,,
1504199064.923312,-0.124708,0.463347,0.608149,-0.216931,-0.226676,0.361003,-0.111270,-0.446945,-0.887614,-0.117002,0.000274,-0.099446,-0.170362,29.314056,-32.494690,,,,,,,
1504199064.933322,-0.129074,0.460495,0.612131,-0.238826,-0.275548,0.394141,-0.115308,-0.444392,-0.888381,-0.102526,-0.004980,-0.086671,-0.546492,29.762375,-32.498993,,,,,,,
1504199064.943332,-0.134326,0.457938,0.616128,-0.188356,-0.375053,0.383730,-0.120124,-0.442100,-0.888886,-0.092400,0.007087,-0.085815,-0.546492,29.762375,-32.498993,,,,,,,
1504199064.953341,-0.140802,0.456597,0.619886,-0.043125,-0.521124,0.338341,-0.125961,-0.440896,-0.888676,-0.085785,0.029107,-0.087170,-0.695814,29.536545,-32.422699,,,,,,,
1504199064.963351,-0.149417,0.456424,0.623423,0.195920,-0.702011,0.250479,-0.133624,-0.440741,-0.887633,-0.079023,0.047247,-0.082536,-0.695814,29.536545,-32.422699,,,,,,,
1504199064.973330,-0.158776,0.460348,0.625909,0.497234,-0.858874,0.125325,-0.141650,-0.444260,-0.884629,-0.075437,0.041855,-0.057739,-0.996824,29.985046,-32.351807,,,,,,,
1504199064.983340,-0.168584,0.467185,0.627370,0.749230,-0.923671,-0.018224,-0.149806,-0.450375,-0.880182,-0.068089,0.073712,-0.032080,-0.996824,29.985046,-32.351807,,,,,,,
1504199064.993350,-0.177403,0.475564,0.627530,0.846623,-0.847591,-0.170828,-0.156892,-0.457840,-0.875082,-0.060622,0.095382,-0.010615,-1.444868,29.382431,-32.048401,,,,,,,
1504199065.003360,-0.183890,0.484948,0.626044,0.932255,-0.656303,-0.348205,-0.161772,-0.466162,-0.869783,-0.058809,0.101340,0.004915,-1.444868,29.382431,-32.048401,,,,,,,
1504199065.013369,-0.186754,0.495799,0.622520,1.036915,-0.374562,-0.558799,-0.163314,-0.475734,-0.864295,-0.062913,0.069286,0.026877,-1.969557,29.304916,-31.974121,,,,,,,
1504199065.023379,-0.185327,0.508194,0.616972,1.156885,-0.037551,-0.755588,-0.160981,-0.486601,-0.858665,-0.065505,0.031416,0.047767,-1.969557,29.304916,-31.974121,,,,,,,
1504199065.033389,-0.179461,0.522056,0.609488,1.274640,0.299462,-0.936369,-0.154723,-0.498664,-0.852875,-0.061449,0.028754,0.058243,-2.116957,28.403793,-31.742737,,,,,,,
1504199065.043399,-0.169978,0.537899,0.600125,1.470415,0.519681,-1.116809,-0.145273,-0.512333,-0.846410,-0.061132,0.035450,0.059026,-2.116957,28.403793,-31.742737,,,,,,,
1504199065.053408,-0.158065,0.555640,0.589085,1.627844,0.646391,-1.245915,-0.133727,-0.527487,-0.838972,-0.072922,0.028082,0.033613,-1.889402,27.429642,-31.659882,,,,,,,
1504199065.063418,-0.144810,0.574066,0.577251,1.672102,0.699325,-1.264078,-0.121173,-0.543051,-0.830911,-0.082990,0.024023,0.001000,-1.889402,27.429642,-31.659882,,,,,,,
1504199065.073428,-0.131334,0.591663,0.565617,1.577832,0.706404,-1.176726,-0.108696,-0.557742,-0.822866,-0.100548,0.002002,-0.041056,-1.361250,26.082306,-31.798462,,,,,,,
1504199065.083438,-0.118704,0.607249,0.554903,1.377017,0.634381,-1.031781,-0.097253,-0.570611,-0.815442,-0.122443,-0.018928,-0.086337,-1.361250,26.082306,-31.798462,,,,,,,
1504199065.093448,-0.108238,0.619811,0.545577,1.089795,0.452212,-0.852634,-0.087932,-0.580881,-0.809225,-0.137288,-0.025335,-0.134898,-0.758192,24.959702,-31.638519,,,,,,,
1504199065.103457,-0.101547,0.629671,0.537668,0.855892,0.115122,-0.701941,-0.081931,-0.588879,-0.804058,-0.134973,-0.034595,-0.189289,-0.758192,24.959702,-31.638519,,,,,,,
1504199065.113467,-0.099715,0.637301,0.531243,0.661880,-0.307539,-0.557432,-0.080009,-0.595028,-0.799713,-0.131493,-0.051334,-0.233140,-0.756498,24.284698,-31.633453,,,,,,,
1504199065.123477,-0.103192,0.643213,0.526088,0.512498,-0.772094,-0.443727,-0.082425,-0.599770,-0.795916,-0.113589,-0.061363,-0.259351,-0.756498,24.284698,-31.633453,,,,,,,
1504199065.133487,-0.112379,0.647819,0.522126,0.401137,-1.289169,-0.336268,-0.089423,-0.603448,-0.792372,-0.103631,-0.071585,-0.277116,-0.529387,23.535400,-31.477295,,,,,,,
1504199065.143496,-0.127746,0.651838,0.519627,0.374996,-1.814421,-0.214771,-0.101278,-0.606648,-0.788493,-0.084086,-0.077998,-0.303518,-0.529387,23.535400,-31.477295,,,,,,,
1504199065.153506,-0.148916,0.655798,0.518885,0.384576,-2.266455,-0.078397,-0.117590,-0.609792,-0.783790,-0.055033,-0.073543,-0.320702,-1.353102,23.156250,-31.251495,,,,,,,
1504199065.163516,-0.174247,0.659536,0.519953,0.376585,-2.514814,0.056520,-0.137008,-0.612750,-0.778310,-0.031953,-0.045926,-0.324489,-1.353102,23.156250,-31.251495,,,,,,,
1504199065.173526,-0.201454,0.662642,0.522476,0.330836,-2.568888,0.157939,-0.157748,-0.615202,-0.772426,-0.019727,0.003401,-0.307438,-2.702238,23.074280,-30.804230,,,,,,,
1504199065.183535,-0.229444,0.665632,0.525156,0.346197,-2.669148,0.126121,-0.178885,-0.617556,-0.765914,-0.011713,0.047259,-0.277543,-2.702238,23.074280,-30.804230,,,,,,,
1504199065.193545,-0.257604,0.669015,0.526917,0.367798,-2.702250,0.020544,-0.199846,-0.620214,-0.758549,0.006914,0.079824,-0.251476,-4.275709,22.915710,-30.056976,,,,,,,
1504199065.203555,-0.284705,0.673351,0.527216,0.443498,-2.671810,-0.134152,-0.219569,-0.623609,-0.750267,0.035579,0.089292,-0.191505,-4.275709,22.915710,-30.056976,,,,,,,
1504199065.213565,-0.308853,0.679042,0.525823,0.538036,-2.439030,-0.319060,-0.236539,-0.628048,-0.741354,0.041593,0.090450,-0.139277,-5.473524,22.533661,-29.232117,,,,,,,
1504199065.223544,-0.328593,0.686403,0.522538,0.642277,-2.074173,-0.526598,-0.249628,-0.633759,-0.732145,0.020013,0.077179,-0.084216,-5.473524,22.533661,-29.232117,,,,,,,
1504199065.233554,-0.342044,0.695041,0.517276,0.690146,-1.539444,-0.711052,-0.257606,-0.640417,-0.723536,-0.022988,0.057821,-0.046163,-6.596296,22.002411,-28.630951,,,,,,,
1504199065.243564,-0.348801,0.704563,0.510074,0.710158,-1.011958,-0.883799,-0.260394,-0.647701,-0.716016,-0.078336,0.037517,-0.021838,-6.596296,22.002411,-28.630951,,,,,,,
1504199065.253573,-0.349893,0.714836,0.500749,0.722650,-0.622940,-1.054180,-0.258881,-0.655493,-0.709443,-0.128525,0.028022,-0.045745,-7.493956,21.472015,-27.954193,,,,,,,
1504199065.263583,-0.346545,0.725472,0.489733,0.712711,-0.333965,-1.165717,-0.254122,-0.663488,-0.703708,-0.165296,0.023931,-0.086972,-7.493956,21.472015,-27.954193,,,,,,,
1504199065.273593,-0.340673,0.736066,0.477449,0.676694,-0.206798,-1.227913,-0.247623,-0.671377,-0.698524,-0.178845,0.001868,-0.119759,-7.490980,20.421570,-27.721313,,,,,,,
1504199065.283603,-0.333596,0.745829,0.464643,0.578921,-0.142084,-1.201511,-0.240515,-0.678581,-0.694032,-0.191568,-0.011132,-0.160536,-7.490980,20.421570,-27.721313,,,,,,,
1504199065.293612,-0.326292,0.754061,0.452032,0.443066,-0.132530,-1.115304,-0.233641,-0.684604,-0.690455,-0.196779,0.002506,-0.175298,-7.488935,19.746109,-27.491241,,,,,,,
1504199065.303622,-0.319946,0.760781,0.440169,0.341661,-0.197885,-0.996883,-0.227803,-0.689488,-0.687541,-0.193736,0.005955,-0.173863,-7.488935,19.746109,-27.491241,,,,,,,
1504199065.313632,-0.315435,0.766246,0.430305,0.286941,-0.241338,-0.790892,-0.223526,-0.693435,-0.684969,-0.192749,-0.003037,-0.165616,-7.262632,19.222122,-27.486755,,,,,,,
1504199065.323642,-0.313798,0.770781,0.423422,0.278458,-0.351275,-0.549480,-0.221432,-0.696696,-0.682336,-0.183521,-0.043859,-0.120352,-7.262632,19.222122,-27.486755,,,,,,,
1504199065.333651,-0.316445,0.774965,0.419293,0.319064,-0.629921,-0.366393,-0.222329,-0.699691,-0.678972,-0.181892,-0.089601,-0.081755,-7.261274,18.771820,-27.333374,,,,,,,
1504199065.343661,-0.323706,0.779883,0.417661,0.477293,-0.907353,-0.233271,-0.226155,-0.703196,-0.674069,-0.183848,-0.099294,-0.060245,-7.261274,18.771820,-27.333374,,,,,,,
1504199065.353671,-0.334841,0.786820,0.418762,0.758257,-1.063224,-0.126837,-0.232038,-0.708112,-0.666886,-0.179522,-0.089084,-0.033706,-15.664061,-13.398252,-26.805542,,,,,,,
1504199065.363681,-0.348438,0.796365,0.422410,1.048903,-1.102978,-0.064354,-0.238766,-0.714819,-0.657286,-0.186985,-0.102366,-0.010911,-16.261427,-14.450940,-26.799133,,,,,,,
1504199065.373690,-0.363402,0.807223,0.428214,1.175763,-1.058299,0.028651,-0.245800,-0.722370,-0.646346,-0.212436,-0.085400,-0.015381,-16.261427,-14.450940,-26.799133,,,,,,,
1504199065.383700,-0.378957,0.817419,0.436270,1.130044,-0.936613,0.191670,-0.253086,-0.729382,-0.635570,-0.216381,-0.034747,-0.037023,-16.261427,-14.450940,-26.799133,,,,,,,
1504199065.393710,-0.394916,0.825646,0.446785,0.993542,-0.790797,0.412129,-0.260879,-0.734986,-0.625890,-0.202653,0.019364,-0.053187,-16.859373,-14.680585,-25.823914,,,,,,,
1504199065.403720,-0.411838,0.831219,0.459808,0.812611,-0.721353,0.647589,-0.269789,-0.738754,-0.617622,-0.185854,0.065063,-0.069435,-16.859373,-14.680585,-25.823914,,,,,,,
1504199065.413730,-0.430415,0.834456,0.474585,0.669359,-0.791732,0.805440,-0.280216,-0.740931,-0.610328,-0.153301,0.111155,-0.084039,-17.232756,-15.282422,-25.745331,,,,,,,
1504199065.423739,-0.450808,0.836252,0.489632,0.566440,-0.968870,0.834394,-0.292023,-0.742136,-0.603288,-0.102447,0.124247,-0.076735,-17.232756,-15.282422,-25.745331,,,,,,,
1504199065.433749,-0.471521,0.837348,0.503449,0.494650,-1.055577,0.756502,-0.304086,-0.742871,-0.596385,-0.055732,0.043743,-0.032964,-18.056807,-15.436887,-25.371216,,,,,,,
1504199065.443759,-0.490717,0.838445,0.515790,0.474487,-0.971124,0.655982,-0.315093,-0.743604,-0.589720,-0.042176,-0.030321,0.015730,-18.056807,-15.436887,-25.371216,,,,,,,
1504199065.453769,-0.507206,0.839524,0.527122,0.427643,-0.725596,0.601031,-0.324384,-0.744326,-0.583742,-0.035663,-0.039686,0.042253,-18.506315,-15.364804,-24.922913,,,,,,,
1504199065.463778,-0.519325,0.839780,0.537136,0.317526,-0.380454,0.556468,-0.331339,-0.744496,-0.579603,-0.014379,-0.010219,0.053678,-18.506315,-15.364804,-24.922913,,,,,,,
1504199065.473788,-0.526620,0.838772,0.544955,0.119741,-0.077182,0.480873,-0.335936,-0.743823,-0.577819,0.000731,0.038851,0.053024,-19.480772,-15.444638,-24.699738,,,,,,,
1504199065.483767,-0.529411,0.836237,0.549952,-0.106378,0.145349,0.394696,-0.338498,-0.742126,-0.578505,0.013852,0.079605,0.053038,-19.480772,-15.444638,-24.699738,,,,,,,
1504199065.493777,-0.528504,0.832558,0.552504,-0.263580,0.316158,0.313000,-0.339348,-0.739655,-0.581166,0.037636,0.089524,0.078663,-19.706297,-15.370191,-24.925873,,,,,,,
1504199065.503787,-0.525257,0.828598,0.553459,-0.314681,0.415760,0.235883,-0.338925,-0.736984,-0.584794,0.063046,0.083252,0.127061,-19.706297,-15.370191,-24.925873,,,,,,,
1504199065.513797,-0.520945,0.825239,0.553730,-0.263860,0.456972,0.166517,-0.337631,-0.734710,-0.588394,0.087143,0.076690,0.179367,-19.781645,-15.370084,-25.151031,,,,,,,
1504199065.523806,-0.516702,0.822873,0.553781,-0.186011,0.413771,0.104819,-0.335989,-0.733103,-0.591331,0.110235,0.064523,0.234138,-19.633451,-14.918515,-25.604034,,,,,,,
1504199065.533816,-0.512542,0.821320,0.553569,-0.126121,0.399478,0.053713,-0.334084,-0.732045,-0.593715,0.119179,0.026647,0.272533,-19.633451,-14.918515,-25.604034,,,,,,,
1504199065.543826,-0.508740,0.820441,0.553860,-0.046204,0.396672,0.069867,-0.332138,-0.731447,-0.595542,0.118362,0.018663,0.301124,-19.633451,-14.918515,-25.604034,,,,,,,
1504199065.553836,-0.506399,0.820010,0.555517,0.040458,0.335149,0.137372,-0.330895,-0.731152,-0.596594,0.135949,0.022916,0.304022,-19.483183,-15.291944,-26.050903,,,,,,,
1504199065.563845,-0.506170,0.819993,0.558305,0.104137,0.182206,0.174044,-0.330764,-0.731141,-0.596681,0.163223,0.036698,0.280870,-19.484053,-15.216046,-26.501434,,,,,,,
1504199065.573855,-0.508127,0.820212,0.561221,0.118429,-0.043799,0.155254,-0.331854,-0.731291,-0.595892,0.187628,0.066282,0.255453,-19.484053,-15.216046,-26.501434,,,,,,,
1504199065.583865,-0.512189,0.820758,0.563747,0.138121,-0.276218,0.113002,-0.334076,-0.731663,-0.594191,0.202972,0.077656,0.245162,-19.484358,-15.140897,-26.577026,,,,,,,
1504199065.593875,-0.518067,0.821717,0.566177,0.176293,-0.451271,0.094163,-0.337215,-0.732316,-0.591607,0.206905,0.074845,0.259790,-19.484358,-15.140897,-26.577026,,,,,,,
1504199065.603885,-0.526080,0.823136,0.569007,0.236610,-0.645710,0.096746,-0.341422,-0.733282,-0.587987,0.204902,0.069692,0.284184,-19.933439,-15.368360,-26.351440,,,,,,,
1504199065.613894,-0.536784,0.825438,0.572489,0.351208,-0.867217,0.082391,-0.346832,-0.734845,-0.582846,0.199676,0.053266,0.298941,-19.933439,-15.368360,-26.351440,,,,,,,
1504199065.623904,-0.550056,0.829197,0.577128,0.532505,-1.016819,0.073363,-0.353091,-0.737389,-0.575833,0.189120,0.019356,0.317319,-20.306517,-15.821103,-25.823975,,,,,,,
1504199065.633914,-0.565312,0.834601,0.583248,0.724086,-1.084449,0.058870,-0.359695,-0.741029,-0.567006,0.182082,-0.009627,0.345342,-20.306517,-15.821103,-25.823975,,,,,,,
1504199065.643924,-0.581795,0.841720,0.590847,0.924845,-1.076489,0.036789,-0.366083,-0.745790,-0.556579,0.168344,-0.027342,0.363418,-20.830503,-16.049053,-25.523560,,,,,,,
1504199065.653933,-0.599298,0.850530,0.600607,1.148404,-0.995231,0.053044,-0.372047,-0.751630,-0.544640,0.154350,-0.040454,0.367776,-20.830503,-16.049053,-25.523560,,,,,,,
1504199065.663943,-0.617917,0.860873,0.612870,1.354823,-0.921292,0.071417,-0.377599,-0.758412,-0.531254,0.153722,-0.041820,0.354633,-21.578688,-16.279079,-24.698730,,,,,,,
1504199065.673944,-0.637481,0.872470,0.626931,1.508996,-0.870321,0.045977,-0.382658,-0.765919,-0.516662,0.153303,-0.015483,0.310226,-21.578688,-16.279079,-24.698730,,,,,,,
1504199065.683954,-0.657139,0.885334,0.642074,1.633924,-0.770043,-0.026567,-0.386689,-0.774127,-0.501198,0.156404,0.028750,0.261574,-21.650419,-16.956509,-23.643799,,,,,,,
1504199065.693963,-0.675545,0.899223,0.657247,1.688001,-0.615858,-0.139890,-0.389088,-0.782843,-0.485558,0.163761,0.066703,0.222192,-21.650419,-16.956509,-23.643799,,,,,,,
1504199065.703973,-0.691292,0.913574,0.671484,1.649772,-0.396978,-0.253487,-0.389482,-0.791692,-0.470666,0.171739,0.106161,0.185831,-21.948271,-17.409206,-22.966156,,,,,,,
1504199065.713983,-0.703585,0.927904,0.683880,1.552777,-0.194652,-0.376763,-0.387858,-0.800365,-0.457145,0.195582,0.124859,0.162986,-21.948271,-17.409206,-22.966156,,,,,,,
1504199065.723993,-0.713307,0.942354,0.694292,1.485606,-0.133230,-0.501874,-0.384676,-0.808944,-0.444560,0.236406,0.123123,0.139598,-21.944990,-18.310543,-22.284393,,,,,,,
1504199065.734003,-0.722968,0.957313,0.702878,1.442056,-0.334117,-0.648896,-0.380903,-0.817648,-0.431700,0.296217,0.082830,0.101973,-21.944990,-18.310543,-22.284393,,,,,,,
1504199065.743982,-0.733599,0.973216,0.708295,1.372943,-0.725431,-0.895963,-0.376717,-0.826699,-0.417915,0.338448,0.032937,0.041022,-21.790770,-19.361980,-21.226135,,,,,,,
1504199065.753992,-0.744634,0.990521,0.709218,1.290285,-1.113375,-1.202834,-0.371553,-0.836312,-0.403151,0.331301,0.025887,-0.028810,-21.790770,-19.361980,-21.226135,,,,,,,
1504199065.764001,-0.753192,1.008849,0.704985,1.149837,-1.225968,-1.461191,-0.364443,-0.846219,-0.388708,0.296206,0.067838,-0.092051,-21.563246,-19.962307,-20.546051,,,,,,,
1504199065.774011,-0.755378,1.026771,0.695323,0.881941,-0.945460,-1.635069,-0.354837,-0.855632,-0.376808,0.238901,0.134395,-0.123879,-21.563246,-19.962307,-20.546051,,,,,,,
1504199065.784021,-0.746600,1.042923,0.678662,0.499406,-0.420047,-1.748736,-0.342085,-0.863880,-0.369715,0.168058,0.166141,-0.120687,-21.259901,-20.712902,-19.564667,,,,,,,
1504199065.794031,-0.724369,1.054922,0.653947,-0.141889,0.291640,-1.665710,-0.326889,-0.869862,-0.369438,0.102371,0.143314,-0.116097,-21.259901,-20.712902,-19.564667,,,,,,,
1504199065.804040,-0.690040,1.058645,0.621579,-0.932048,0.663344,-1.373132,-0.311953,-0.871692,-0.377940,-0.113111,-0.003659,-0.239461,-20.581861,-21.835186,-19.404572,,,,,,,
1504199065.814050,-0.650470,1.054497,0.584297,-1.630720,0.698690,-1.137442,-0.298944,-0.869652,-0.392858,-0.307562,-0.116050,-0.463801,-20.581861,-21.835186,-19.404572,,,,,,,
1504199065.824060,-0.611507,1.046221,0.543619,-1.899992,0.238453,-1.152040,-0.287537,-0.865537,-0.410084,-0.182098,-0.010745,-0.426891,-19.908888,-21.605206,-20.379578,,,,,,,
1504199065.834070,-0.580999,1.035652,0.506407,-1.927714,-0.256041,-0.877961,-0.279899,-0.860195,-0.426287,-0.006020,0.037349,-0.249646,-19.908888,-21.605206,-20.379578,,,,,,,
1504199065.844079,-0.553416,1.022251,0.471426,-2.154213,-0.241477,-0.792987,-0.274070,-0.853284,-0.443612,-0.240776,-0.253467,0.035287,-19.310514,-21.450863,-21.204254,,,,,,,
1504199065.854089,-0.527602,1.008686,0.436545,-2.048435,-0.445728,-0.936543,-0.268332,-0.846132,-0.460497,-0.151926,-0.108457,0.050311,-19.310514,-21.450863,-21.204254,,,,,,,
1504199065.864099,-0.505865,1.001351,0.402832,-1.326568,-0.731544,-1.304109,-0.261260,-0.842200,-0.471638,0.139739,0.128852,0.050922,-19.012175,-21.148312,-21.805786,,,,,,,
1504199065.874109,-0.488451,1.003414,0.372187,-0.346716,-0.874623,-1.613841,-0.252192,-0.843311,-0.474580,0.273524,0.089282,0.410661,-19.012175,-21.148312,-21.805786,,,,,,,
1504199065.884118,-0.477261,1.014640,0.347365,0.583192,-0.993004,-1.710221,-0.242502,-0.849290,-0.468934,0.171259,-0.062056,0.661149,-18.562284,-21.146145,-21.879669,,,,,,,
1504199065.894128,-0.470716,1.031933,0.328322,1.228888,-0.936570,-1.659034,-0.232731,-0.858293,-0.457351,-0.036739,-0.149169,0.644500,-18.562284,-21.146145,-21.879669,,,,,,,
1504199065.904138,-0.468167,1.052076,0.317124,1.615891,-0.614416,-1.276764,-0.223716,-0.868454,-0.442423,-0.179726,-0.063995,0.468790,-18.108793,-22.045757,-21.046814,,,,,,,
1504199065.914148,-0.471399,1.070768,0.317121,1.654590,-0.239143,-0.732984,-0.217734,-0.877569,-0.427159,-0.549767,-0.216914,0.235737,-18.108793,-22.045757,-21.046814,,,,,,,
1504199065.924158,-0.476070,1.086836,0.320667,1.450522,-0.171566,-0.568009,-0.213237,-0.885159,-0.413549,-0.764531,-0.285876,-0.034693,-17.655073,-22.945690,-20.063904,,,,,,,
1504199065.934167,-0.480541,1.100438,0.321821,1.149912,-0.420546,-0.592641,-0.209499,-0.891406,-0.401878,-0.344517,-0.052350,-0.281883,-17.655073,-22.945690,-20.063904,,,,,,,
1504199065.944177,-0.486170,1.110976,0.320098,0.817744,-0.828127,-0.533791,-0.207357,-0.896132,-0.392365,-0.048304,-0.056123,-0.318236,-17.655073,-22.945690,-20.063904,,,,,,,
1504199065.954187,-0.497217,1.118604,0.318808,0.599330,-1.349717,-0.361398,-0.208411,-0.899491,-0.384031,-0.043908,-0.145705,-0.227495,-17.802473,-23.622555,-19.459198,,,,,,,
1504199065.964197,-0.514871,1.124174,0.319576,0.475497,-1.797472,-0.209252,-0.212688,-0.901911,-0.375926,-0.115788,-0.117086,-0.152196,-17.801146,-23.699062,-18.708588,,,,,,,
1504199065.974206,-0.535556,1.128637,0.320266,0.377395,-2.056672,-0.207897,-0.218362,-0.903830,-0.367981,-0.168769,0.001059,-0.074448,-17.801146,-23.699062,-18.708588,,,,,,,
1504199065.984216,-0.554755,1.132767,0.318273,0.282708,-2.092007,-0.319009,-0.223418,-0.905589,-0.360545,-0.160707,0.118098,0.003886,-18.398329,-24.154003,-17.581696,,,,,,,
1504199065.994226,-0.568840,1.136874,0.312087,0.182556,-1.908795,-0.481751,-0.226468,-0.907324,-0.354226,-0.156527,0.143408,0.084206,-18.398329,-24.154003,-17.581696,,,,,,,
1504199066.004205,-0.575576,1.141227,0.301331,0.110546,-1.549978,-0.657562,-0.226697,-0.909145,-0.349376,-0.181613,0.128750,0.162608,-18.696287,-24.606548,-16.979034,,,,,,,
1504199066.014215,-0.574012,1.146400,0.286567,0.102543,-1.062744,-0.839894,-0.223594,-0.911288,-0.345776,-0.184655,0.146609,0.226879,-18.696287,-24.606548,-16.979034,,,,,,,
1504199066.024225,-0.564250,1.152831,0.267851,0.140086,-0.629145,-1.041265,-0.217069,-0.913917,-0.342983,-0.149966,0.161307,0.276485,-18.470121,-24.756573,-16.452362,,,,,,,
1504199066.034234,-0.546853,1.160652,0.245090,0.194220,-0.252166,-1.237171,-0.207347,-0.917063,-0.340592,-0.143514,0.145029,0.306534,-18.470121,-24.756573,-16.452362,,,,,,,
1504199066.044244,-0.521891,1.169529,0.217580,0.212405,0.030275,-1.436174,-0.194715,-0.920567,-0.338590,-0.157061,0.111073,0.305982,-17.867689,-25.504635,-16.070251,,,,,,,
1504199066.054254,-0.489223,1.178959,0.183981,0.189248,0.207571,-1.643603,-0.179464,-0.924209,-0.337091,-0.168238,0.103530,0.256815,-17.867689,-25.504635,-16.070251,,,,,,,
1504199066.064264,-0.448983,1.188799,0.143795,0.197626,0.330253,-1.843409,-0.161803,-0.927922,-0.335828,-0.177278,0.107808,0.201246,-16.966368,-26.025585,-16.064087,,,,,,,
1504199066.074274,-0.402365,1.199029,0.097906,0.251296,0.413080,-1.989696,-0.142252,-0.931687,-0.334251,-0.159979,0.095109,0.140007,-16.966368,-26.025585,-16.064087,,,,,,,
1504199066.084283,-0.351275,1.209606,0.048004,0.353374,0.457071,-2.063247,-0.121599,-0.935477,-0.331808,-0.126585,0.093970,0.077017,-15.838865,-26.846127,-15.755096,,,,,,,
1504199066.094293,-0.297767,1.220835,-0.004149,0.540231,0.465139,-2.078949,-0.100591,-0.939386,-0.327773,-0.085185,0.100763,0.028304,-15.838865,-26.846127,-15.755096,,,,,,,
1504199066.104303,-0.245711,1.232676,-0.056859,0.711297,0.040579,-1.974366,-0.080688,-0.943380,-0.321751,-0.039017,0.050787,0.034779,-14.712980,-27.290783,-15.898956,,,,,,,
1504199066.114313,-0.220985,1.241870,-0.097151,0.554480,-1.691463,-1.330074,-0.070805,-0.946390,-0.315172,-0.039486,-0.191290,-0.163527,-14.712980,-27.290783,-15.898956,,,,,,,
1504199066.124322,-0.202789,1.246915,-0.138059,0.082411,-1.991094,-1.500081,-0.064096,-0.948007,-0.311727,-0.142813,-0.431692,-0.387202,-14.034330,-28.114834,-14.841095,,,,,,,
1504199066.134332,-0.168002,1.248507,-0.188864,-0.156296,-1.069435,-1.578973,-0.052963,-0.948513,-0.312279,-0.035782,-0.156040,0.050469,-14.034330,-28.114834,-14.841095,,,,,,,
1504199066.144342,-0.125791,1.250815,-0.235083,0.085198,0.129365,-1.442973,-0.039463,-0.949241,-0.312064,-0.206066,-0.039940,0.319296,-13.283888,-28.112072,-14.539215,,,,,,,
1504199066.154352,-0.079186,1.255851,-0.275303,0.510139,0.920659,-1.304870,-0.024503,-0.950813,-0.308794,-0.066851,-0.158623,0.403063,-13.283888,-28.112072,-14.539215,,,,,,,
1504199066.164361,-0.045506,1.262551,-0.312869,0.590966,-0.602934,-1.125922,-0.013801,-0.952868,-0.303073,0.144783,-0.164946,0.172351,-12.458021,-28.408504,-14.459961,,,,,,,
1504199066.174371,-0.014026,1.267752,-0.347512,0.482590,0.178947,-1.033557,-0.004186,-0.954432,-0.298398,-0.110469,-0.327870,-0.341281,-12.458021,-28.408504,-14.459961,,,,,,,
1504199066.184381,0.022469,1.272860,-0.380889,0.495948,0.430238,-0.956057,0.006595,-0.955944,-0.293474,-0.143589,-0.169330,0.163927,-11.631178,-29.005245,-14.228424,,,,,,,
1504199066.194391,0.052847,1.276706,-0.408531,0.394313,0.405262,-0.726697,0.015312,-0.957066,-0.289464,-0.099372,-0.153713,-0.036219,-11.631178,-29.005245,-14.228424,,,,,,,
1504199066.204400,0.075736,1.279507,-0.428758,0.278497,0.320764,-0.530347,0.021730,-0.957875,-0.286364,-0.070115,-0.281841,-0.141584,-11.180769,-29.078533,-14.076721,,,,,,,
1504199066.214410,0.094604,1.281283,-0.445013,0.205499,0.339357,-0.410957,0.026968,-0.958383,-0.284209,0.010065,-0.258078,-0.065812,-11.180769,-29.078533,-14.076721,,,,,,,
1504199066.224420,0.105750,1.282639,-0.453801,0.141621,0.239467,-0.170726,0.029997,-0.958769,-0.282598,0.086931,-0.143037,-0.060633,-11.104979,-29.303493,-13.924805,,,,,,,
1504199066.234430,0.106227,1.283928,-0.453347,0.127962,0.027255,0.089003,0.030001,-0.959135,-0.281355,0.026457,-0.098406,-0.045503,-11.104979,-29.303493,-13.924805,,,,,,,
1504199066.244440,0.095459,1.285559,-0.444276,0.135994,-0.286347,0.329735,0.026820,-0.959595,-0.280104,0.042394,-0.038544,-0.023393,-10.804869,-29.302288,-13.849091,,,,,,,
1504199066.254449,0.074484,1.287433,-0.427406,0.154423,-0.526465,0.528728,0.020805,-0.960121,-0.278811,0.089989,0.012947,-0.012403,-10.804869,-29.302288,-13.849091,,,,,,,
1504199066.264459,0.048233,1.289656,-0.406451,0.205587,-0.615416,0.610096,0.013377,-0.960740,-0.277128,0.095311,0.107926,0.004118,-11.254759,-29.304470,-13.775208,,,,,,,
1504199066.274438,0.020916,1.292186,-0.383763,0.225443,-0.515444,0.639841,0.005752,-0.961439,-0.274959,0.128297,0.182569,-0.001362,-11.254759,-29.304470,-13.775208,,,,,,,
1504199066.284448,-0.004907,1.293514,-0.360441,0.086494,-0.280931,0.637052,-0.001343,-0.961803,-0.273739,0.106980,0.180126,0.014508,-11.629377,-29.231899,-13.401672,,,,,,,
1504199066.294458,-0.025437,1.292518,-0.340731,-0.138822,-0.118036,0.508286,-0.006987,-0.961530,-0.274612,-0.011095,0.196332,0.105834,-11.629377,-29.231899,-13.401672,,,,,,,
1504199066.304468,-0.039835,1.290883,-0.325544,-0.134568,0.073859,0.390541,-0.011002,-0.961079,-0.276053,-0.144866,0.194615,0.220603,-12.229292,-29.085186,-13.104309,,,,,,,
1504199066.314477,-0.045640,1.290397,-0.316488,0.003230,0.375554,0.199183,-0.012626,-0.960945,-0.276451,-0.195031,0.138954,0.299751,-12.229292,-29.085186,-13.104309,,,,,,,
1504199066.324487,-0.041768,1.291204,-0.313737,0.091348,0.750093,0.031093,-0.011523,-0.961168,-0.275723,-0.188199,0.138933,0.290845,-12.229979,-29.084301,-13.554291,,,,,,,
1504199066.334497,-0.028531,1.291323,-0.315757,-0.022392,1.273280,-0.071430,-0.007869,-0.961201,-0.275737,-0.248112,0.093067,0.234187,-12.229979,-29.084301,-13.554291,,,,,,,
1504199066.344507,-0.013061,1.290522,-0.314719,-0.096265,1.734074,0.075998,-0.003613,-0.960979,-0.276596,-0.266880,-0.000675,0.191071,-11.855162,-29.007610,-13.553925,,,,,,,
1504199066.354516,-0.017589,1.288445,-0.301898,-0.305603,0.099666,0.496939,-0.004900,-0.960403,-0.278572,-0.247648,-0.199753,0.109337,-11.855162,-29.007610,-13.553925,,,,,,,
1504199066.364526,-0.054952,1.285245,-0.264177,-0.240880,-0.018850,1.235903,-0.015471,-0.959507,-0.281261,-0.240205,-0.451489,-0.488652,-11.781630,-28.781078,-14.155426,,,,,,,
1504199066.374536,-0.102048,1.281646,-0.207134,-0.219042,1.031118,1.748577,-0.029047,-0.958487,-0.283654,-0.317709,-0.592478,-0.006888,-11.781630,-28.781078,-14.155426,,,,,,,
1504199066.384546,-0.154679,1.279397,-0.134313,0.136178,1.840770,2.204613,-0.044261,-0.957843,-0.283863,-0.430440,-0.582959,0.484928,-12.907347,-28.411434,-14.011017,,,,,,,
1504199066.394555,-0.223185,1.279061,-0.046511,0.539517,1.417203,2.589256,-0.063660,-0.957746,-0.280481,-0.596130,-0.332339,0.353235,-12.907347,-28.411434,-14.011017,,,,,,,
1504199066.404565,-0.307125,1.276792,0.048667,0.530173,0.527261,2.823503,-0.087608,-0.957091,-0.276227,-0.495796,-0.315065,0.000409,-13.958982,-27.890697,-14.242584,,,,,,,
1504199066.414575,-0.412563,1.270192,0.158307,0.509942,-0.187105,3.382979,-0.118723,-0.955158,-0.271254,-0.231436,-0.377240,-0.257311,-13.958982,-27.890697,-14.242584,,,,,,,
1504199066.424585,-0.528672,1.257645,0.275412,0.491392,-0.510266,3.804074,-0.155380,-0.951368,-0.266001,-0.364731,-0.330508,-0.178930,-15.910749,-27.149609,-14.177979,,,,,,,
1504199066.434595,-0.639654,1.239443,0.387245,0.400248,-0.450037,3.991672,-0.194191,-0.945603,-0.261007,-0.321190,-0.316421,-0.051004,-15.910749,-27.149609,-14.177979,,,,,,,
1504199066.444604,-0.738371,1.216507,0.487930,0.378135,-0.358305,4.080066,-0.233509,-0.937893,-0.256573,-0.167278,-0.366626,-0.036289,-18.088087,-25.810726,-13.518494,,,,,,,
1504199066.454614,-0.820200,1.190665,0.574048,0.324484,-0.070028,3.960984,-0.271337,-0.928616,-0.253079,0.030919,-0.374042,-0.046848,-18.088087,-25.810726,-13.518494,,,,,,,
1504199066.464624,-0.881488,1.165176,0.642573,0.288471,0.345263,3.503340,-0.304499,-0.918858,-0.250960,0.286982,-0.194759,-0.012742,-20.191206,-24.620007,-13.607666,,,,,,,
1504199066.474634,-0.914143,1.143630,0.688585,0.034383,1.085709,2.580426,-0.328137,-0.910143,-0.252913,0.544094,0.081866,-0.023271,-20.191206,-24.620007,-13.607666,,,,,,,
1504199066.484643,-0.925062,1.128438,0.712841,-0.125447,1.035828,1.601429,-0.341883,-0.903744,-0.257607,0.816844,0.383969,-0.005088,-21.469023,-23.500744,-13.619263,,,,,,,
1504199066.494653,-0.929404,1.119726,0.722381,-0.225820,0.206408,0.715707,-0.349294,-0.899981,-0.260821,0.937444,0.650164,-0.082288,-21.469023,-23.500744,-13.619263,,,,,,,
1504199066.504663,-0.927177,1.118139,0.715886,-0.348151,-0.510815,-0.294070,-0.349854,-0.899288,-0.262455,0.940125,0.738110,-0.184993,-21.995634,-23.127193,-14.073364,,,,,,,
1504199066.514673,-0.913774,1.123933,0.693918,-0.434773,-0.616702,-1.280313,-0.342174,-0.901807,-0.263934,0.880412,0.654493,-0.149305,-21.995634,-23.127193,-14.073364,,,,,,,
1504199066.524682,-0.884394,1.135010,0.657480,-0.559581,-0.251573,-1.984592,-0.326525,-0.906538,-0.267524,0.696154,0.425093,-0.059808,-21.470259,-23.274837,-14.070953,,,,,,,
1504199066.534662,-0.842718,1.148141,0.611799,-0.591689,0.084664,-2.281978,-0.306183,-0.912003,-0.272951,0.505097,0.269166,0.022417,-21.470259,-23.274837,-14.070953,,,,,,,
1504199066.544671,-0.796671,1.160813,0.562998,-0.571145,0.141999,-2.244685,-0.285008,-0.917127,-0.278653,0.360051,0.169920,0.071958,-20.344099,-23.869335,-14.288727,,,,,,,
1504199066.554681,-0.751708,1.171809,0.516750,-0.445115,0.310138,-2.001395,-0.265292,-0.921455,-0.283798,0.230212,0.126670,0.110015,-20.344099,-23.869335,-14.288727,,,,,,,
1504199066.564691,-0.708061,1.181759,0.475382,-0.283663,0.612295,-1.799909,-0.246681,-0.925275,-0.288124,0.109230,0.092099,0.184654,-19.442183,-24.764843,-14.504761,,,,,,,
1504199066.574701,-0.666194,1.190500,0.438043,-0.187751,0.746589,-1.561949,-0.229398,-0.928555,-0.291826,0.005628,0.048550,0.177965,-19.442183,-24.764843,-14.504761,,,,,,,
1504199066.584711,-0.630744,1.195963,0.407124,-0.296671,0.612757,-1.115728,-0.215916,-0.930569,-0.295673,-0.112331,-0.134587,0.083362,-18.392530,-24.983929,-15.100433,,,,,,,
1504199066.594720,-0.605218,1.197907,0.381657,-0.377716,0.000399,-0.821252,-0.207270,-0.931278,-0.299599,-0.213018,-0.309170,-0.126671,-18.392530,-24.983929,-15.100433,,,,,,,
1504199066.604730,-0.588985,1.199182,0.359640,-0.342095,-0.533896,-0.690025,-0.201719,-0.931742,-0.301936,-0.199587,-0.281331,-0.325048,-17.792112,-25.280788,-15.321716,,,,,,,
1504199066.614740,-0.579675,1.199603,0.342508,-0.294777,-0.641034,-0.508296,-0.198685,-0.931895,-0.303473,-0.190246,-0.308888,-0.262430,-17.792112,-25.280788,-15.321716,,,,,,,
1504199066.624750,-0.571951,1.200773,0.329580,-0.096427,-0.345434,-0.442295,-0.195745,-0.932319,-0.304081,-0.266841,-0.392739,-0.118252,-17.866590,-25.356579,-15.096344,,,,,,,
1504199066.634759,-0.563283,1.203785,0.319837,0.106539,0.063188,-0.478955,-0.191601,-0.933404,-0.303391,-0.268497,-0.285056,0.053834,-17.866590,-25.356579,-15.096344,,,,,,,
1504199066.644769,-0.548973,1.208618,0.308102,0.212602,0.405625,-0.659766,-0.184884,-0.935127,-0.302250,-0.189276,-0.138298,0.113666,-17.415998,-25.729107,-15.317413,,,,,,,
1504199066.654779,-0.527677,1.215051,0.290677,0.233996,0.511224,-0.929968,-0.175373,-0.937387,-0.300915,-0.003612,-0.037665,0.100109,-17.415998,-25.729107,-15.317413,,,,,,,
1504199066.664789,-0.497497,1.222325,0.263882,0.151143,0.498374,-1.238568,-0.162955,-0.939896,-0.300069,0.151206,-0.001236,0.053350,-16.965086,-25.952526,-15.089600,,,,,,,
1504199066.674773,-0.455904,1.229594,0.225420,0.015516,0.549908,-1.559115,-0.147325,-0.942353,-0.300443,0.250367,0.010011,0.032133,-16.965086,-25.952526,-15.089600,,,,,,,
1504199066.684783,-0.404319,1.236884,0.177035,-0.011732,0.575988,-1.830328,-0.128931,-0.944767,-0.301316,0.290537,0.003224,0.016313,-15.839247,-26.471874,-15.382904,,,,,,,
1504199066.694793,-0.343678,1.243914,0.118295,-0.049630,0.476407,-2.092799,-0.108193,-0.947048,-0.302315,0.241051,0.024151,-0.001365,-15.839247,-26.471874,-15.382904,,,,,,,
1504199066.704803,-0.276441,1.250226,0.051519,-0.043334,0.372078,-2.238839,-0.086004,-0.949056,-0.303144,0.207998,0.077001,-0.024966,-15.014448,-26.617428,-15.754761,,,,,,,
1504199066.714812,-0.207241,1.255345,-0.017979,-0.015237,0.297231,-2.216243,-0.063837,-0.950656,-0.303607,0.172128,0.056720,0.084155,-15.014448,-26.617428,-15.754761,,,,,,,
1504199066.724822,-0.139574,1.260110,-0.087679,0.125672,0.056283,-2.188889,-0.042531,-0.952124,-0.302740,0.096044,0.033789,0.196523,-13.437986,-27.285046,-15.895813,,,,,,,
1504199066.734832,-0.076477,1.263766,-0.156228,0.134881,-0.312625,-2.059066,-0.023091,-0.953235,-0.301346,0.070622,0.130817,0.217682,-13.437986,-27.285046,-15.895813,,,,,,,
1504199066.744842,-0.031397,1.265399,-0.210350,0.065440,-0.734681,-1.432945,-0.009439,-0.953727,-0.300524,-0.029044,0.169960,0.091357,-12.461256,-27.880962,-15.738892,,,,,,,
1504199066.754852,-0.027247,1.265949,-0.224884,0.060609,-1.020578,-0.065106,-0.008177,-0.953893,-0.300036,-0.515993,0.010274,-0.014417,-12.461256,-27.880962,-15.738892,,,,,,,
1504199066.764861,-0.061250,1.267051,-0.202039,0.180319,-1.237743,0.828900,-0.018308,-0.954223,-0.298536,-1.217669,-0.140549,0.050946,-12.235731,-27.955410,-15.512756,,,,,,,
1504199066.774871,-0.101721,1.268686,-0.173251,0.240671,-1.298974,0.823775,-0.030213,-0.954711,-0.295998,-1.091277,-0.003587,0.108498,-12.235731,-27.955410,-15.512756,,,,,,,
1504199066.784881,-0.133792,1.269986,-0.151722,0.185194,-1.076575,0.537223,-0.039524,-0.955097,-0.293646,-0.406384,0.240421,0.096991,-13.060057,-27.960003,-15.064789,,,,,,,
1504199066.794860,-0.152952,1.270785,-0.139653,0.111867,-0.660131,0.289792,-0.045026,-0.955333,-0.292081,-0.085116,0.232417,0.127912,-13.060057,-27.960003,-15.064789,,,,,,,
1504199066.804870,-0.162606,1.270998,-0.133355,0.029259,-0.270360,0.149132,-0.047811,-0.955396,-0.291432,-0.042293,0.195615,0.176106,-13.659819,-27.738750,-14.542969,,,,,,,
1504199066.814880,-0.164794,1.270738,-0.132077,-0.036622,-0.059744,0.004547,-0.048489,-0.955319,-0.291572,-0.036975,0.203686,0.180885,-13.659819,-27.738750,-14.542969,,,,,,,
1504199066.824889,-0.162930,1.269851,-0.134888,-0.127345,-0.116452,-0.079835,-0.048083,-0.955057,-0.292498,-0.052701,0.183252,0.159365,-13.284590,-27.737362,-14.392059,,,,,,,
1504199066.834899,-0.162589,1.267925,-0.137381,-0.220277,-0.222315,-0.013631,-0.048281,-0.954484,-0.294328,-0.113447,0.134217,0.091402,-13.284590,-27.737362,-14.392059,,,,,,,
1504199066.844909,-0.166560,1.265308,-0.135321,-0.251528,-0.167867,0.135656,-0.049863,-0.953700,-0.296597,-0.132617,0.034785,0.068097,-13.360273,-27.512554,-14.468933,,,,,,,
1504199066.854919,-0.166415,1.262918,-0.134171,-0.217056,0.201732,0.019784,-0.050197,-0.952979,-0.298851,-0.137867,-0.057947,0.107384,-13.360273,-27.512554,-14.468933,,,,,,,
1504199066.864928,-0.156253,1.262049,-0.141700,-0.085514,0.327754,-0.268409,-0.047287,-0.952715,-0.300163,-0.067993,-0.058851,0.139198,-13.284941,-27.736919,-14.617065,,,,,,,
1504199066.874938,-0.140197,1.262998,-0.154294,0.068567,0.419354,-0.424144,-0.042335,-0.953003,-0.299989,-0.010399,-0.248703,0.104081,-13.284941,-27.736919,-14.617065,,,,,,,
1504199066.884948,-0.121088,1.265068,-0.169462,0.169645,0.471878,-0.497712,-0.036357,-0.953628,-0.298784,-0.060750,-0.256592,0.094499,-12.684492,-27.959072,-14.688873,,,,,,,
1504199066.894958,-0.099217,1.267815,-0.188428,0.218225,0.325631,-0.631863,-0.029555,-0.954451,-0.296900,-0.066179,-0.232347,0.008326,-12.684492,-27.959072,-14.688873,,,,,,,
1504199066.904967,-0.074905,1.271127,-0.212389,0.290702,0.090439,-0.761513,-0.022092,-0.955434,-0.294376,-0.050998,-0.223841,-0.070568,-12.309568,-27.882534,-14.613525,,,,,,,
1504199066.914977,-0.048595,1.275052,-0.240048,0.359480,-0.044288,-0.862559,-0.014158,-0.956586,-0.291108,-0.037341,-0.121845,-0.113540,-12.309568,-27.882534,-14.613525,,,,,,,
1504199066.924987,-0.019890,1.279258,-0.271253,0.398613,-0.135107,-0.939184,-0.005717,-0.957803,-0.287370,-0.048513,0.023141,-0.113570,-11.708250,-28.180584,-14.234802,,,,,,,
1504199066.934997,0.010342,1.283725,-0.305112,0.449103,-0.236736,-0.957063,0.002928,-0.959077,-0.283129,-0.051421,0.082521,-0.092100,-11.708250,-28.180584,-14.234802,,,,,,,
1504199066.945007,0.040335,1.287991,-0.338445,0.447047,-0.193086,-0.902706,0.011252,-0.960276,-0.278823,-0.062476,0.118297,-0.073975,-11.332090,-28.554195,-14.081024,,,,,,,
1504199066.955016,0.068206,1.291809,-0.369480,0.415497,-0.217421,-0.819461,0.018768,-0.961335,-0.274742,-0.027023,0.079667,-0.000740,-11.332090,-28.554195,-14.081024,,,,,,,
1504199066.965026,0.093547,1.294790,-0.399378,0.350947,-0.391691,-0.777636,0.025456,-0.962152,-0.271323,-0.052647,0.030465,0.021552,-10.805616,-29.002285,-13.851349,,,,,,,
1504199066.975036,0.114585,1.297107,-0.425699,0.267039,-0.396463,-0.647550,0.030903,-0.962780,-0.268513,-0.078831,0.131939,-0.029323,-10.805616,-29.002285,-13.851349,,,,,,,
1504199066.985046,0.136364,1.298408,-0.452471,0.229019,-0.389687,-0.714874,0.036573,-0.963131,-0.266535,-0.088697,0.271069,-0.015890,-10.354490,-29.226009,-13.473541,,,,,,,
1504199066.995055,0.162963,1.297838,-0.481754,0.002344,-0.126620,-0.838482,0.043738,-0.962978,-0.266010,0.049188,0.288753,0.036609,-10.354490,-29.226009,-13.473541,,,,,,,
1504199067.005065,0.196915,1.295320,-0.517666,-0.103619,-0.027502,-1.040580,0.053216,-0.962296,-0.266749,0.039420,0.290665,0.091456,-9.979200,-29.299480,-13.397064,,,,,,,
1504199067.015075,0.237123,1.291221,-0.558140,-0.164163,0.168177,-1.209679,0.064822,-0.961173,-0.268226,-0.005969,0.235419,0.133842,-9.979200,-29.299480,-13.397064,,,,,,,
1504199067.025085,0.284543,1.285894,-0.602619,-0.204784,0.589595,-1.374873,0.078900,-0.959689,-0.269762,-0.147259,0.219302,0.166643,-9.153715,-29.445919,-13.318909,,,,,,,
1504199067.035094,0.343039,1.278829,-0.654133,-0.223046,1.042956,-1.693790,0.096814,-0.957679,-0.271067,-0.167462,0.066108,0.257746,-9.153715,-29.445919,-13.318909,,,,,,,
1504199067.045104,0.410525,1.269452,-0.711712,-0.254539,1.333350,-1.974016,0.118452,-0.954938,-0.272143,-0.039152,-0.191165,0.295276,-7.577604,-29.888851,-13.311646,,,,,,,
1504199067.055083,0.480223,1.258105,-0.769907,-0.275749,1.410369,-2.090535,0.142114,-0.951509,-0.272826,0.055640,-0.311781,0.210051,-7.577604,-29.888851,-13.311646,,,,,,,
1504199067.065093,0.540595,1.246463,-0.820789,-0.217055,1.145393,-1.875418,0.164006,-0.947863,-0.273235,0.021571,-0.372648,0.082546,-6.153090,-29.956539,-13.757538,,,,,,,
1504199067.075103,0.577662,1.240561,-0.855502,0.229617,0.048555,-0.988901,0.177070,-0.945966,-0.271651,-0.125053,-0.406603,-0.025408,-6.153090,-29.956539,-13.757538,,,,,,,
1504199067.085113,0.589587,1.241856,-0.873321,0.475654,-0.495536,-0.276625,0.179616,-0.946385,-0.268501,-0.318593,-0.483714,-0.198219,-5.027510,-30.326031,-13.976959,,,,,,,
1504199067.095123,0.598518,1.245801,-0.885622,0.550686,-0.188413,-0.067826,0.179902,-0.947652,-0.263800,-0.299165,-0.200602,-0.050332,-5.027510,-30.326031,-13.976959,,,,,,,
1504199067.105132,0.604869,1.250254,-0.892802,0.487359,0.020761,0.129165,0.179172,-0.949065,-0.259178,-0.123066,0.069609,0.092232,-4.876143,-30.327160,-13.076599,,,,,,,
1504199067.115142,0.607152,1.255501,-0.894521,0.447625,0.092311,0.295484,0.176920,-0.950705,-0.254676,-0.097864,0.043234,0.065650,-4.876143,-30.327160,-13.076599,,,,,,,
1504199067.125152,0.604995,1.261280,-0.890357,0.391066,0.199156,0.469185,0.173243,-0.952481,-0.250533,-0.088434,0.025738,0.125564,-5.026228,-30.252972,-13.002533,,,,,,,
1504199067.135162,0.599391,1.266786,-0.882394,0.262756,0.191643,0.512739,0.168875,-0.954144,-0.247167,-0.125845,-0.010059,0.184071,-5.026228,-30.252972,-13.002533,,,,,,,
1504199067.145171,0.594658,1.272692,-0.876024,0.475361,0.067392,0.470630,0.164543,-0.955895,-0.243290,-0.084221,-0.014274,0.216145,-5.475615,-30.405300,-12.852509,,,,,,,
1504199067.155181,0.590950,1.279883,-0.872230,0.553384,-0.035571,0.492295,0.159806,-0.957982,-0.238185,-0.062119,0.028005,0.163981,-5.475615,-30.405300,-12.852509,,,,,,,
1504199067.165191,0.587391,1.287727,-0.869646,0.629391,-0.133173,0.499004,0.154788,-0.960203,-0.232490,-0.013263,0.016431,0.131355,-5.775007,-30.332699,-12.328796,,,,,,,
1504199067.175201,0.583403,1.296073,-0.867231,0.663042,-0.179297,0.523693,0.149440,-0.962500,-0.226409,-0.004237,-0.016794,0.105727,-5.775007,-30.332699,-12.328796,,,,,,,
1504199067.185210,0.579076,1.304716,-0.865197,0.704089,-0.256347,0.513226,0.143901,-0.964809,-0.220082,-0.043315,-0.067204,0.094625,-6.073912,-30.410244,-11.728973,,,,,,,
1504199067.195220,0.577406,1.313951,-0.866306,0.824765,-0.272210,0.465430,0.138663,-0.967196,-0.212848,-0.059089,-0.065030,0.098422,-6.073912,-30.410244,-11.728973,,,,,,,
1504199067.205230,0.581968,1.324336,-0.873676,1.018439,-0.242835,0.400603,0.134104,-0.969782,-0.203810,-0.079310,-0.077734,0.124541,-6.298613,-30.262142,-11.280640,,,,,,,
1504199067.215240,0.591298,1.335824,-0.885397,1.114748,-0.197823,0.415634,0.129781,-0.972521,-0.193288,-0.084325,-0.030973,0.110860,-6.298613,-30.262142,-11.280640,,,,,,,
1504199067.225249,0.603583,1.346070,-0.899106,0.984759,-0.007975,0.256031,0.126483,-0.974855,-0.183465,-0.071200,-0.045088,0.067727,-6.597441,-30.414547,-10.755219,,,,,,,
1504199067.235259,0.615466,1.353239,-0.909217,0.815485,-0.149282,0.169527,0.124616,-0.976428,-0.176239,-0.083753,0.034701,0.116836,-6.597441,-30.414547,-10.755219,,,,,,,
1504199067.245269,0.619876,1.360410,-0.917236,0.544247,-0.348608,0.325249,0.121321,-0.977950,-0.169984,-0.128767,-0.234330,-0.048400,-6.596312,-30.416042,-10.005219,,,,,,,
1504199067.255279,0.610844,1.364621,-0.913000,0.267960,-0.496547,0.291942,0.117418,-0.978821,-0.167698,-0.029070,-0.261520,-0.130245,-6.596312,-30.416042,-10.005219,,,,,,,
1504199067.265289,0.606570,1.368439,-0.911533,0.297127,-0.223928,0.228535,0.114569,-0.979596,-0.165126,-0.012899,-0.172138,0.005153,-6.745298,-30.642315,-9.703918,,,,,,,
1504199067.275298,0.598955,1.372301,-0.906733,0.253141,-0.327030,0.325774,0.111174,-0.980364,-0.162868,-0.021010,-0.160718,0.087566,-6.745298,-30.642315,-9.703918,,,,,,,
1504199067.285308,0.587824,1.377188,-0.898271,0.341737,-0.257538,0.429343,0.106696,-0.981316,-0.160106,0.055749,-0.248801,0.043483,-7.119734,-30.644756,-9.329834,,,,,,,
1504199067.295318,0.582273,1.382182,-0.895260,0.377597,-0.275782,0.269327,0.103110,-0.982265,-0.156601,0.092356,-0.198811,0.132660,-7.119734,-30.644756,-9.329834,,,,,,,
1504199067.305328,0.582901,1.386340,-0.897947,0.396912,-0.193781,0.164611,0.100959,-0.983036,-0.153125,0.101922,-0.115154,0.150546,-7.344801,-30.570919,-9.255951,,,,,,,
1504199067.315307,0.593139,1.390332,-0.911759,0.504444,-0.360670,-0.056928,0.100327,-0.983760,-0.148828,0.048706,-0.131779,0.171091,-7.344801,-30.570919,-9.255951,,,,,,,
1504199067.325317,0.614362,1.393838,-0.937494,0.554809,-0.426996,-0.207228,0.101474,-0.984384,-0.143846,-0.001712,-0.052939,0.112581,-7.193983,-30.496578,-8.581116,,,,,,,
1504199067.335326,0.637467,1.396595,-0.966119,0.497614,-0.540489,-0.259429,0.103154,-0.984865,-0.139282,-0.013692,-0.042692,0.079254,-7.193983,-30.496578,-8.581116,,,,,,,
1504199067.345336,0.663172,1.398563,-0.998360,0.476960,-0.625505,-0.319090,0.105507,-0.985204,-0.135057,-0.020577,-0.068583,0.009432,-7.417967,-30.723186,-8.279968,,,,,,,
1504199067.355346,0.689115,1.399817,-1.031473,0.455536,-0.677474,-0.385214,0.108189,-0.985419,-0.131322,-0.037083,-0.023157,-0.032665,-7.417967,-30.723186,-8.279968,,,,,,,
1504199067.365356,0.718736,1.400271,-1.068089,0.425426,-0.620671,-0.461152,0.111736,-0.985496,-0.127723,-0.048779,-0.008889,-0.035149,-7.042433,-30.796947,-8.053497,,,,,,,
1504199067.375365,0.748865,1.399697,-1.104458,0.343935,-0.562416,-0.500890,0.115918,-0.985398,-0.124713,-0.064176,0.015031,-0.018185,-7.042433,-30.796947,-8.053497,,,,,,,
1504199067.385375,0.772729,1.397354,-1.134650,0.125109,-0.596808,-0.535365,0.120472,-0.984997,-0.123564,-0.083287,-0.021916,-0.017320,-7.041655,-31.022259,-7.901794,,,,,,,
1504199067.395385,0.785490,1.393350,-1.153878,-0.108835,-0.617284,-0.511184,0.124827,-0.984298,-0.124805,-0.097392,-0.056031,-0.022748,-7.041655,-31.022259,-7.901794,,,,,,,
1504199067.405395,0.789338,1.388375,-1.163207,-0.258562,-0.492501,-0.454024,0.128782,-0.983407,-0.127771,-0.088575,-0.069190,0.016748,-6.816771,-30.796841,-7.602905,,,,,,,
1504199067.415405,0.792556,1.383726,-1.170244,-0.219199,-0.350073,-0.416848,0.132447,-0.982553,-0.130564,-0.087006,-0.053168,0.065379,-6.816771,-30.796841,-7.602905,,,,,,,
1504199067.425414,0.797148,1.379479,-1.178294,-0.178557,-0.323791,-0.394409,0.136029,-0.981755,-0.132869,-0.073147,-0.021999,0.034450,-6.891279,-30.947323,-7.526947,,,,,,,
1504199067.435424,0.806724,1.378515,-1.189734,0.186746,-0.135221,-0.174223,0.137978,-0.981571,-0.132215,-0.057732,-0.009518,-0.024783,-6.891279,-30.947323,-7.526947,,,,,,,
1504199067.445434,0.811420,1.377820,-1.196946,-0.023854,-0.307201,-0.152937,0.139092,-0.981438,-0.132035,-0.029077,-0.063148,-0.011992,-6.366545,-31.019375,-7.825134,,,,,,,
1504199067.455444,0.805403,1.375045,-1.194484,-0.289704,-0.345478,-0.177880,0.140258,-0.980902,-0.134756,-0.029388,-0.024637,-0.145594,-6.366545,-31.019375,-7.825134,,,,,,,
1504199067.465453,0.796959,1.370644,-1.187985,-0.420269,-0.155746,-0.222205,0.142202,-0.980036,-0.138951,-0.007421,0.015956,-0.041133,-6.666166,-31.170712,-7.824768,,,,,,,
1504199067.475463,0.789071,1.366794,-1.180701,-0.364428,-0.074216,-0.163544,0.143778,-0.979264,-0.142726,-0.018961,0.030503,0.105143,-6.666166,-31.170712,-7.824768,,,,,,,
1504199067.485473,0.780901,1.363466,-1.173629,-0.326799,-0.143836,-0.118526,0.144900,-0.978584,-0.146210,-0.011569,-0.000801,0.099274,-6.591017,-31.320080,-7.973450,,,,,,,
1504199067.495483,0.772252,1.361303,-1.166534,-0.234720,-0.177727,-0.023307,0.145107,-0.978136,-0.148973,0.016941,-0.000684,0.038896,-6.591017,-31.320080,-7.973450,,,,,,,
1504199067.505492,0.765097,1.360451,-1.161301,-0.099762,-0.212992,0.029291,0.144615,-0.977959,-0.150609,0.005974,-0.051079,0.017690,-6.517286,-30.944302,-8.201080,,,,,,,
1504199067.515502,0.762230,1.360731,-1.160384,0.045580,-0.184351,0.027358,0.143993,-0.978017,-0.150824,0.003910,-0.024363,-0.017358,-6.517286,-30.944302,-8.201080,,,,,,,
1504199067.525512,0.765274,1.361526,-1.165018,0.141175,-0.137132,-0.024862,0.143913,-0.978183,-0.149825,0.015465,0.005801,-0.014695,-6.591871,-31.019924,-8.050690,,,,,,,
1504199067.535522,0.771271,1.362652,-1.172298,0.197959,-0.110954,-0.030147,0.144041,-0.978416,-0.148169,0.014269,0.010795,-0.001214,-6.591871,-31.019924,-8.050690,,,,,,,
1504199067.545531,0.778786,1.364112,-1.181213,0.245857,-0.125201,-0.030039,0.144147,-0.978717,-0.146066,0.008075,-0.007398,0.013055,-6.742445,-30.795605,-8.052765,,,,,,,
1504199067.555541,0.790051,1.366066,-1.193942,0.351692,-0.114326,-0.054425,0.144424,-0.979116,-0.143087,0.009552,-0.014475,0.028813,-6.742445,-30.795605,-8.052765,,,,,,,
1504199067.565551,0.808361,1.368648,-1.213548,0.504782,-0.081434,-0.105453,0.145191,-0.979638,-0.138672,-0.012440,-0.011284,0.035690,-6.517073,-30.944592,-8.051086,,,,,,,
1504199067.575530,0.835355,1.371818,-1.241854,0.663026,-0.078410,-0.168161,0.146578,-0.980269,-0.132618,-0.035936,-0.008241,0.013875,-6.517073,-30.944592,-8.051086,,,,,,,
1504199067.585540,0.868527,1.374894,-1.276639,0.723991,-0.100157,-0.233128,0.148593,-0.980872,-0.125736,-0.056827,-0.045312,-0.025845,-6.591459,-30.870983,-7.526764,,,,,,,
1504199067.595550,0.904748,1.377293,-1.314551,0.716867,-0.093643,-0.291859,0.151198,-0.981337,-0.118818,-0.057189,-0.077776,-0.046206,-6.591459,-30.870983,-7.526764,,,,,,,
1504199067.605560,0.944682,1.378929,-1.355709,0.743412,-0.020262,-0.362391,0.154520,-0.981650,-0.111746,-0.041758,-0.062067,-0.021967,-6.365416,-31.020870,-7.075104,,,,,,,
1504199067.615569,0.998665,1.380387,-1.409274,0.973916,0.177232,-0.482957,0.159121,-0.981927,-0.102471,-0.045336,-0.008689,0.027657,-6.365416,-31.020870,-7.075104,,,,,,,
1504199067.625579,1.061533,1.380470,-1.471535,1.009744,0.164300,-0.628038,0.165173,-0.981943,-0.092231,-0.081936,0.038232,0.044944,-6.138945,-31.246044,-6.472870,,,,,,,
1504199067.635589,1.124163,1.379299,-1.534098,0.986891,0.090991,-0.655701,0.171659,-0.981720,-0.082209,-0.079374,0.003296,0.005335,-6.138945,-31.246044,-6.472870,,,,,,,
1504199067.645599,1.172293,1.376560,-1.583993,0.737979,-0.070016,-0.636635,0.177893,-0.981195,-0.074898,-0.099432,-0.054083,0.017144,-5.687178,-31.545376,-5.794495,,,,,,,
1504199067.655608,1.222792,1.374081,-1.635180,0.880669,0.065145,-0.577919,0.183733,-0.980714,-0.066652,-0.118471,-0.045485,0.093538,-5.687178,-31.545376,-5.794495,,,,,,,
1504199067.665618,1.281345,1.372313,-1.693912,1.083226,0.088978,-0.507162,0.188980,-0.980367,-0.056281,-0.108215,0.008031,0.163657,-5.162031,-31.468456,-5.568756,,,,,,,
1504199067.675640,1.341278,1.370816,-1.755060,1.134143,-0.036193,-0.434270,0.193440,-0.980071,-0.045194,-0.073003,0.053221,0.072340,-5.162031,-31.468456,-5.568756,,,,,,,
1504199067.685650,1.398602,1.369369,-1.814580,1.132180,-0.107639,-0.369035,0.197109,-0.979782,-0.034281,-0.048168,0.058624,-0.001608,-4.785826,-31.543118,-4.892242,,,,,,,
1504199067.695659,1.453162,1.367066,-1.871587,1.085185,-0.139178,-0.409622,0.200926,-0.979319,-0.023745,-0.056013,0.053812,0.016421,-4.785826,-31.543118,-4.892242,,,,,,,
1504199067.705669,1.500569,1.363689,-1.921709,0.944160,-0.174228,-0.427951,0.205123,-0.978630,-0.014429,-0.080520,0.055549,0.039545,-4.484022,-31.768414,-4.064789,,,,,,,
1504199067.715679,1.537438,1.360331,-1.960899,0.743604,-0.128956,-0.361132,0.208799,-0.977934,-0.006968,-0.106244,-0.016436,0.079691,-4.484022,-31.768414,-4.064789,,,,,,,
1504199067.725689,1.565708,1.356928,-1.990324,0.576982,-0.016763,-0.359484,0.212239,-0.977217,-0.001080,-0.093327,-0.041841,0.146786,-4.408766,-31.693676,-3.765167,,,,,,,
1504199067.735698,1.590479,1.353284,-2.014562,0.506786,0.148976,-0.352426,0.215760,-0.976437,0.004247,-0.104294,0.020627,0.164698,-4.408766,-31.693676,-3.765167,,,,,,,
1504199067.745708,1.614566,1.350275,-2.037471,0.514994,0.165861,-0.259577,0.218529,-0.975784,0.009571,-0.095635,0.017379,0.144680,-4.107374,-31.843685,-3.088318,,,,,,,
1504199067.755718,1.639562,1.347975,-2.061981,0.561938,0.082274,-0.179293,0.220460,-0.975278,0.015184,-0.077561,-0.017108,0.089812,-4.107374,-31.843685,-3.088318,,,,,,,
1504199067.765728,1.663911,1.346390,-2.087016,0.558487,-0.028609,-0.092644,0.221563,-0.974926,0.020691,-0.042440,-0.007083,0.029496,-4.031996,-31.993343,-3.087006,,,,,,,
1504199067.775738,1.684164,1.345273,-2.108212,0.446185,-0.041573,-0.058659,0.222181,-0.974677,0.025297,-0.040708,-0.019112,0.015292,-4.031996,-31.993343,-3.087006,,,,,,,
1504199067.785747,1.696643,1.344342,-2.121124,0.245981,0.005897,-0.059090,0.222748,-0.974469,0.028181,-0.049546,0.011990,0.044695,-3.882185,-31.693417,-2.713867,,,,,,,
1504199067.795757,1.701447,1.343393,-2.125556,0.070529,0.058527,-0.093643,0.223527,-0.974255,0.029371,-0.069306,0.037396,0.093737,-3.882185,-31.693417,-2.713867,,,,,,,
1504199067.805767,1.699333,1.342118,-2.122993,-0.075623,0.028882,-0.145080,0.224820,-0.973967,0.029058,-0.090650,0.056807,0.119151,-3.881208,-31.993710,-2.561584,,,,,,,
1504199067.815777,1.690658,1.340489,-2.114200,-0.214462,-0.024260,-0.202866,0.226639,-0.973596,0.027296,-0.111267,0.034662,0.109148,-3.881208,-31.993710,-2.561584,,,,,,,
1504199067.825786,1.675719,1.338869,-2.099433,-0.350464,-0.068991,-0.174203,0.228589,-0.973225,0.024073,-0.100660,0.018147,0.095114,-3.655912,-32.067852,-2.485474,,,,,,,
1504199067.835796,1.654993,1.337845,-2.079362,-0.479073,-0.126564,-0.150842,0.230032,-0.972989,0.019414,-0.129614,-0.041613,0.074428,-3.655912,-32.067852,-2.485474,,,,,,,
1504199067.845775,1.628140,1.336694,-2.053259,-0.642581,-0.148679,-0.132940,0.231589,-0.972723,0.013295,-0.084814,-0.002756,0.053859,-3.806852,-31.917782,-2.862000,,,,,,,
1504199067.855785,1.591501,1.336021,-2.018263,-0.871189,-0.300271,-0.105317,0.232574,-0.972567,0.004816,-0.067535,0.018099,0.025244,-3.806852,-31.917782,-2.862000,,,,,,,
1504199067.865795,1.541757,1.334083,-1.970547,-1.196376,-0.328400,-0.196560,0.234410,-0.972114,-0.006809,-0.073079,0.022941,-0.018688,-3.732679,-31.991100,-3.536255,,,,,,,
1504199067.875805,1.481005,1.331046,-1.911724,-1.460962,-0.366647,-0.260995,0.236503,-0.971397,-0.021293,-0.042671,0.085304,-0.011895,-3.732679,-31.991100,-3.536255,,,,,,,
1504199067.885814,1.415428,1.326630,-1.847396,-1.622948,-0.339744,-0.255986,0.238836,-0.970339,-0.037409,-0.073385,0.077120,-0.000814,-3.284224,-31.912273,-4.435730,,,,,,,
1504199067.895824,1.346192,1.321225,-1.779644,-1.766252,-0.357784,-0.217776,0.240785,-0.969018,-0.055009,-0.079576,0.039087,0.011858,-3.284224,-31.912273,-4.435730,,,,,,,
1504199067.905834,1.277446,1.314958,-1.711812,-1.797967,-0.287249,-0.163518,0.242246,-0.967451,-0.073174,-0.064451,-0.070955,-0.000678,-3.359068,-32.286572,-4.958099,,,,,,,
1504199067.915844,1.211262,1.309283,-1.645688,-1.778185,-0.232480,0.039256,0.242011,-0.966000,-0.090965,-0.083686,-0.199497,0.013023,-3.359068,-32.286572,-4.958099,,,,,,,
1504199067.925854,1.146739,1.303199,-1.581478,-1.778891,-0.274110,0.114046,0.240995,-0.964409,-0.108797,-0.109282,-0.206062,-0.013808,-3.437727,-31.684063,-6.387817,,,,,,,
1504199067.935863,1.086026,1.297193,-1.525740,-1.531825,-0.883508,0.086729,0.239071,-0.962803,-0.125916,-0.036739,-0.098323,-0.050643,-3.437727,-31.684063,-6.387817,,,,,,,
1504199067.945873,1.028192,1.290930,-1.476901,-1.480679,-1.128003,0.136350,0.236552,-0.961092,-0.142635,0.016958,0.064013,-0.114842,-3.738920,-31.833324,-7.437439,,,,,,,
1504199067.955883,0.978302,1.284915,-1.433928,-1.257023,-0.761175,0.162775,0.233936,-0.959414,-0.157479,0.023953,0.052568,0.025277,-3.738920,-31.833324,-7.437439,,,,,,,
1504199067.965893,0.943081,1.281250,-1.403374,-0.797804,-0.544426,0.209087,0.231090,-0.958373,-0.167683,0.019933,-0.082078,0.211507,-3.890776,-31.457790,-8.040680,,,,,,,
1504199067.975902,0.919346,1.280356,-1.383319,-0.437669,-0.424927,0.285286,0.227726,-0.958118,-0.173640,0.031230,-0.110379,0.221477,-3.890776,-31.457790,-8.040680,,,,,,,
1504199067.985912,0.900506,1.280440,-1.368019,-0.331879,-0.420444,0.259844,0.224352,-0.958142,-0.177850,0.025709,-0.079944,0.178048,-3.967237,-31.231945,-8.642517,,,,,,,
1504199067.995922,0.881717,1.279388,-1.353294,-0.422536,-0.483521,0.151990,0.221749,-0.957840,-0.182674,-0.001534,-0.014129,0.081417,-3.967237,-31.231945,-8.642517,,,,,,,
1504199068.005932,0.861315,1.276942,-1.337444,-0.533682,-0.537965,0.101726,0.219752,-0.957135,-0.188685,-0.006846,-0.000003,0.011103,-3.967344,-31.231792,-8.717529,,,,,,,
1504199068.015941,0.838131,1.274011,-1.319135,-0.616336,-0.577815,0.137945,0.217404,-0.956282,-0.195604,-0.057812,-0.101870,-0.005125,-3.967344,-31.231792,-8.717529,,,,,,,
1504199068.025951,0.812958,1.269959,-1.299682,-0.721540,-0.703679,0.065401,0.215224,-0.955089,-0.203677,-0.097930,-0.145833,-0.024046,-4.268400,-31.082241,-9.169403,,,,,,,
1504199068.035961,0.783114,1.263463,-1.277325,-1.039675,-0.904515,-0.005245,0.213424,-0.953144,-0.214401,-0.054000,-0.047833,-0.069779,-4.268400,-31.082241,-9.169403,,,,,,,
1504199068.045971,0.747123,1.255658,-1.248630,-1.135800,-0.858001,0.089506,0.210619,-0.950754,-0.227392,-0.043856,-0.050788,-0.069193,-4.644148,-31.008175,-9.545929,,,,,,,
1504199068.055980,0.718638,1.247194,-1.227413,-1.071473,-0.816754,-0.120734,0.209348,-0.948096,-0.239348,-0.077451,-0.092630,-0.010240,-4.644148,-31.008175,-9.545929,,,,,,,
1504199068.065990,0.693395,1.237401,-1.209654,-1.144948,-0.879949,-0.250973,0.209165,-0.944937,-0.251684,-0.063596,-0.019373,-0.062632,-4.795622,-30.782650,-10.147949,,,,,,,
1504199068.076000,0.679445,1.227308,-1.201504,-0.862441,-0.518667,-0.481679,0.211615,-0.941586,-0.261983,-0.090064,0.006741,-0.132518,-4.795622,-30.782650,-10.147949,,,,,,,
1504199068.086010,0.679978,1.221278,-1.203463,-0.262575,-0.026075,-0.383308,0.215321,-0.939538,-0.266281,-0.120976,0.061608,-0.004334,-4.646101,-30.856091,-10.597046,,,,,,,
1504199068.096020,0.690872,1.220598,-1.212605,0.250674,0.318031,-0.269880,0.218616,-0.939305,-0.264412,-0.145496,-0.034313,0.071312,-4.646101,-30.856091,-10.597046,,,,,,,
1504199068.105999,0.705484,1.221003,-1.222973,0.194101,0.476160,-0.225426,0.222210,-0.939444,-0.260899,-0.162227,-0.045633,-0.042934,-4.345839,-31.004589,-10.670197,,,,,,,
1504199068.116009,0.713712,1.220100,-1.225922,-0.113777,0.475375,-0.106409,0.224905,-0.939134,-0.259704,-0.132528,-0.122604,-0.163941,-4.345839,-31.004589,-10.670197,,,,,,,
1504199068.126018,0.705794,1.214828,-1.215618,-0.795507,0.104793,-0.067443,0.226049,-0.937310,-0.265241,-0.082205,-0.236534,-0.273227,-3.971296,-31.002300,-10.969269,,,,,,,
1504199068.136028,0.688591,1.205838,-1.195238,-1.230119,0.229788,-0.007575,0.226799,-0.934139,-0.275586,0.002114,-0.188863,-0.214817,-3.971296,-31.002300,-10.969269,,,,,,,
1504199068.146038,0.670460,1.195986,-1.172475,-1.268001,0.316379,0.025296,0.227473,-0.930577,-0.286850,0.054876,-0.174907,0.100387,-4.122694,-30.851635,-11.645752,,,,,,,
1504199068.156048,0.656261,1.187597,-1.154368,-0.998561,0.240657,0.003481,0.228132,-0.927473,-0.296225,0.106371,-0.115099,0.245596,-4.122694,-30.851635,-11.645752,,,,,,,
1504199068.166057,0.647695,1.181407,-1.142802,-0.675251,0.217791,-0.038614,0.229046,-0.925141,-0.302741,0.139530,-0.042541,0.268073,-3.974119,-30.774319,-12.470978,,,,,,,
1504199068.176067,0.642307,1.176606,-1.134744,-0.550582,0.195456,-0.041561,0.230069,-0.923308,-0.307523,0.110065,-0.007463,0.250257,-3.974119,-30.774319,-12.470978,,,,,,,
1504199068.186077,0.637232,1.172465,-1.127595,-0.477527,0.138355,-0.019986,0.230779,-0.921709,-0.311758,0.093730,-0.026106,0.184225,-4.124266,-30.849545,-12.695801,,,,,,,
1504199068.196087,0.632554,1.169277,-1.120921,-0.391291,0.150373,0.036715,0.231054,-0.920468,-0.315202,0.069346,-0.053836,0.139085,-4.124266,-30.849545,-12.695801,,,,,,,
1504199068.206096,0.627477,1.166381,-1.113905,-0.405352,0.134492,0.049527,0.231014,-0.919333,-0.318527,0.000294,0.004935,0.105606,-4.050779,-30.473446,-13.073456,,,,,,,
1504199068.216106,0.621099,1.162642,-1.105366,-0.545107,0.144154,0.062077,0.230977,-0.917855,-0.322788,-0.111592,0.026788,0.053333,-4.050779,-30.473446,-13.073456,,,,,,,
1504199068.226116,0.611013,1.157340,-1.092921,-0.771648,0.132115,0.112941,0.230498,-0.915738,-0.329082,-0.146209,0.031613,0.013622,-4.201414,-30.398525,-13.374359,,,,,,,
1504199068.236126,0.598859,1.151103,-1.078037,-0.869788,0.156330,0.147952,0.229697,-0.913214,-0.336571,-0.161261,0.013311,0.000954,-4.201414,-30.398525,-13.374359,,,,,,,
1504199068.246136,0.587108,1.144885,-1.063286,-0.835515,0.177352,0.155447,0.228868,-0.910662,-0.343967,-0.130540,-0.007718,0.045429,-4.277922,-30.247372,-14.125671,,,,,,,
1504199068.256145,0.577108,1.139673,-1.050069,-0.704154,0.206085,0.175904,0.228003,-0.908497,-0.350212,-0.108511,0.003971,0.069969,-4.277922,-30.247372,-14.125671,,,,,,,
1504199068.266155,0.568766,1.135815,-1.038640,-0.538943,0.201501,0.201816,0.226960,-0.906878,-0.355052,-0.097199,0.013064,0.075847,-4.203794,-30.171139,-14.576080,,,,,,,
1504199068.276165,0.561896,1.133252,-1.028873,-0.406712,0.198272,0.210590,0.225752,-0.905795,-0.358568,-0.079665,-0.000730,0.072832,-4.203794,-30.171139,-14.576080,,,,,,,
1504199068.286175,0.556043,1.131450,-1.020211,-0.333105,0.200855,0.217118,0.224511,-0.905030,-0.361269,-0.062722,0.006806,0.073519,-4.204542,-30.095394,-14.951660,,,,,,,
1504199068.296184,0.550521,1.129750,-1.011856,-0.340524,0.203054,0.210697,0.223318,-0.904305,-0.363814,-0.070089,-0.003226,0.089187,-4.204542,-30.095394,-14.951660,,,,,,,
1504199068.306194,0.544557,1.127452,-1.003134,-0.407747,0.192968,0.195654,0.222220,-0.903322,-0.366916,-0.070303,-0.035933,0.110996,-4.279997,-30.095119,-15.251831,,,,,,,
1504199068.316204,0.538180,1.124683,-0.993940,-0.442911,0.198585,0.195583,0.221157,-0.902131,-0.370472,-0.071575,-0.066512,0.136845,-4.279997,-30.095119,-15.251831,,,,,,,
1504199068.326214,0.532979,1.122198,-0.985586,-0.381653,0.243918,0.179599,0.220365,-0.901056,-0.373547,-0.068509,-0.077368,0.162289,-4.505888,-29.870693,-15.479065,,,,,,,
1504199068.336223,0.528526,1.120068,-0.977743,-0.354859,0.265000,0.189214,0.219667,-0.900130,-0.376181,-0.055833,-0.046174,0.147070,-4.505888,-29.870693,-15.479065,,,,,,,
1504199068.346233,0.523811,1.117865,-0.969458,-0.377253,0.275825,0.204100,0.218882,-0.899168,-0.378929,-0.029932,-0.027605,0.089699,-4.731611,-29.721249,-15.705780,,,,,,,
1504199068.356243,0.519042,1.115605,-0.961169,-0.376248,0.264101,0.197718,0.218080,-0.898177,-0.381732,-0.011156,-0.009401,0.065662,-4.731611,-29.721249,-15.705780,,,,,,,
1504199068.366253,0.514799,1.113239,-0.953594,-0.367613,0.256604,0.165724,0.217504,-0.897134,-0.384502,-0.020864,0.001306,0.097149,-4.807661,-29.570690,-16.157104,,,,,,,
1504199068.376232,0.511713,1.110952,-0.947075,-0.330959,0.281914,0.130519,0.217320,-0.896122,-0.386960,-0.034062,-0.000988,0.144513,-4.807661,-29.570690,-16.157104,,,,,,,
1504199068.386242,0.509572,1.108844,-0.941603,-0.293569,0.269914,0.101785,0.217412,-0.895184,-0.389072,-0.022283,-0.002933,0.166798,-4.507887,-29.569042,-16.306366,,,,,,,
1504199068.396251,0.508203,1.106960,-0.937183,-0.247661,0.255713,0.073070,0.217700,-0.894343,-0.390842,-0.005694,0.007410,0.146534,-4.507887,-29.569042,-16.306366,,,,,,,
1504199068.406261,0.507685,1.105270,-0.933909,-0.210319,0.233065,0.036883,0.218232,-0.893585,-0.392275,-0.000886,-0.005356,0.132174,-4.433043,-29.643261,-16.530609,,,,,,,
1504199068.416271,0.507820,1.103677,-0.931744,-0.178354,0.203006,-0.002503,0.218977,-0.892869,-0.393489,0.002718,-0.020613,0.131740,-4.433043,-29.643261,-16.530609,,,,,,,
1504199068.426281,0.508860,1.102070,-0.930837,-0.152679,0.178342,-0.055785,0.220085,-0.892144,-0.394514,-0.003608,-0.019034,0.139631,-4.658369,-29.643810,-16.756165,,,,,,,
1504199068.436291,0.510884,1.099800,-0.930855,-0.229813,0.223813,-0.133919,0.221872,-0.891117,-0.395833,-0.018396,0.004886,0.150045,-4.658369,-29.643810,-16.756165,,,,,,,
1504199068.446300,0.514245,1.096843,-0.931712,-0.210118,0.254604,-0.183040,0.224497,-0.889771,-0.397378,-0.024957,0.055481,0.175957,-4.583494,-29.643337,-16.830994,,,,,,,
1504199068.456310,0.519025,1.095004,-0.934165,-0.076598,0.268432,-0.191372,0.227205,-0.888930,-0.397720,-0.031434,0.055495,0.185532,-4.583494,-29.643337,-16.830994,,,,,,,
1504199068.466320,0.524467,1.093827,-0.937397,-0.010698,0.241242,-0.184805,0.229890,-0.888390,-0.397383,-0.017182,0.018120,0.148131,-4.507933,-29.867992,-16.829102,,,,,,,
1504199068.476330,0.529997,1.092966,-0.941298,0.020111,0.215430,-0.199650,0.232470,-0.887995,-0.396766,-0.011660,0.004328,0.109244,-4.507933,-29.867992,-16.829102,,,,,,,
1504199068.486339,0.547119,1.110363,-0.954766,-0.009884,0.317865,-0.208336,0.231157,-0.895860,-0.379475,-0.041322,-0.031935,0.107396,-3.833158,-29.864666,-16.977448,,,,,,,
1504199068.496349,0.553909,1.108732,-0.958692,-0.054552,0.315070,-0.241498,0.234496,-0.895134,-0.379139,-0.030898,-0.043693,0.147511,-3.833158,-29.864666,-16.977448,,,,,,,
1504199068.506359,0.560615,1.106976,-0.963109,-0.033506,0.265900,-0.261655,0.237869,-0.894350,-0.378889,-0.025115,-0.015959,0.137113,-3.833158,-29.864666,-16.977448,,,,,,,
1504199068.516369,0.566601,1.106222,-0.967814,0.088074,0.161477,-0.204688,0.240494,-0.894013,-0.378027,-0.029252,-0.038864,0.135473,-3.908491,-29.640301,-16.829315,,,,,,,
1504199068.526378,0.593097,1.123672,-0.991285,0.234485,0.181455,-0.201201,0.241668,-0.901694,-0.358531,-0.021545,-0.055764,0.117030,-3.758802,-29.564480,-16.904510,,,,,,,
1504199068.536388,0.601064,1.124442,-0.998253,0.226845,0.158079,-0.204375,0.244124,-0.902027,-0.356021,0.005037,-0.004574,0.096240,-3.758802,-29.564480,-16.904510,,,,,,,
1504199068.546398,0.608860,1.125017,-1.005104,0.215271,0.173101,-0.212961,0.246595,-0.902275,-0.353682,0.007113,0.002128,0.077849,-3.683607,-29.639141,-16.903748,,,,,,,
1504199068.556408,0.617241,1.125449,-1.012205,0.203832,0.200917,-0.227974,0.249325,-0.902461,-0.351285,-0.005352,0.031627,0.107343,-3.683607,-29.639141,-16.903748,,,,,,,
1504199068.566417,0.641654,1.132924,-1.033314,0.122160,0.248413,-0.236716,0.253781,-0.905656,-0.339680,-0.022321,0.055909,0.111562,-3.533155,-29.639065,-16.603394,,,,,,,
1504199068.576427,0.649443,1.132440,-1.039258,0.112522,0.245293,-0.234593,0.256684,-0.905451,-0.338042,-0.033646,0.045603,0.102004,-3.533155,-29.639065,-16.603394,,,,,,,
1504199068.586437,0.658196,1.131608,-1.045152,0.082641,0.369163,-0.248739,0.260094,-0.905097,-0.336378,-0.047600,0.038062,0.083601,-3.157515,-29.937222,-16.675232,,,,,,,
1504199068.596447,0.667778,1.130082,-1.049972,-0.035161,0.578995,-0.252516,0.264160,-0.904447,-0.334955,-0.062057,0.033857,0.077020,-3.157515,-29.937222,-16.675232,,,,,,,
1504199068.606457,0.669561,1.135176,-1.049508,0.096096,0.129151,-0.120161,0.261894,-0.906609,-0.330866,-0.078682,-0.002541,0.066386,-3.081236,-30.312344,-16.447235,,,,,,,
1504199068.616466,0.672446,1.134903,-1.052289,0.015201,0.029635,-0.104115,0.263002,-0.906493,-0.330303,-0.017854,-0.007966,-0.068821,-3.081236,-30.312344,-16.447235,,,,,,,
1504199068.626476,0.673173,1.133886,-1.053058,-0.068397,-0.004862,-0.083918,0.263816,-0.906063,-0.330833,-0.040901,0.027767,-0.012383,-2.782789,-29.785686,-16.600433,,,,,,,
1504199068.636455,0.674540,1.133291,-1.054455,0.010894,0.036045,-0.085987,0.264605,-0.905811,-0.330893,-0.054797,0.050846,0.072333,-2.782789,-29.785686,-16.600433,,,,,,,
1504199068.646465,0.677252,1.132992,-1.056092,0.025450,0.131813,-0.070120,0.265671,-0.905685,-0.330385,-0.049775,0.067290,0.087343,-3.082563,-29.787334,-16.451172,,,,,,,
1504199068.656475,0.674386,1.138508,-1.050892,-0.159036,0.393361,-0.096465,0.261600,-0.908009,-0.327238,-0.063434,0.023808,0.049680,-3.082563,-29.787334,-16.451172,,,,,,,
1504199068.666485,0.671922,1.136541,-1.046151,-0.240026,-0.032372,0.057851,0.261904,-0.907184,-0.329278,-0.104601,-0.074948,0.040857,-2.782454,-29.786144,-16.375427,,,,,,,
1504199068.676452,0.663930,1.134823,-1.040561,-0.302442,-0.347307,0.088186,0.260224,-0.906460,-0.332588,0.009201,-0.081959,-0.113137,-2.782454,-29.786144,-16.375427,,,,,,,
1504199068.686462,0.652916,1.132532,-1.033607,-0.373054,-0.502307,0.092606,0.257806,-0.905490,-0.337083,0.044028,-0.002744,-0.092788,-3.532789,-29.564800,-16.228943,,,,,,,
1504199068.696472,0.642898,1.130718,-1.028455,-0.221613,-0.535481,0.052366,0.255400,-0.904718,-0.340962,-0.017852,0.039866,0.042531,-3.532789,-29.564800,-16.228943,,,,,,,
1504199068.706482,0.641178,1.133777,-1.030989,0.011910,-0.447871,0.009935,0.253157,-0.906017,-0.339182,-0.023680,0.017055,0.070291,-3.982557,-29.567135,-16.080078,,,,,,,
1504199068.716491,0.639014,1.134944,-1.033389,0.196696,-0.438710,-0.016446,0.251792,-0.906510,-0.338880,-0.025992,0.001893,0.052259,-3.982557,-29.567135,-16.080078,,,,,,,
1504199068.726501,0.638266,1.137080,-1.037666,0.305294,-0.467310,-0.016208,0.250384,-0.907410,-0.337512,-0.017200,0.007279,-0.022717,-4.356688,-29.644711,-15.630402,,,,,,,
1504199068.736511,0.638455,1.139911,-1.043189,0.388401,-0.482911,-0.018171,0.248916,-0.908596,-0.335401,0.007508,-0.032505,-0.057788,-4.356688,-29.644711,-15.630402,,,,,,,
1504199068.746521,0.638561,1.142783,-1.048835,0.476042,-0.469762,-0.028718,0.247395,-0.909792,-0.333278,0.008236,-0.024626,-0.042287,-4.880781,-29.872524,-15.404999,,,,,,,
1504199068.756531,0.641663,1.146847,-1.057105,0.547842,-0.433053,-0.032928,0.246213,-0.911471,-0.329544,-0.035214,0.006793,-0.023011,-4.880781,-29.872524,-15.404999,,,,,,,
1504199068.766540,0.645643,1.151251,-1.066150,0.577734,-0.430104,-0.031814,0.245104,-0.913274,-0.325352,-0.040286,0.033285,-0.017864,-5.180433,-29.650066,-14.807434,,,,,,,
1504199068.776550,0.649509,1.155658,-1.075391,0.576342,-0.472713,-0.034944,0.243924,-0.915061,-0.321193,-0.019360,0.021918,-0.026143,-5.180433,-29.650066,-14.807434,,,,,,,
1504199068.786560,0.652583,1.159677,-1.084287,0.590174,-0.493043,-0.060502,0.242675,-0.916674,-0.317517,-0.000915,-0.003049,-0.021304,-5.479124,-29.952160,-14.430939,,,,,,,
1504199068.796570,0.657016,1.163779,-1.094751,0.572976,-0.524843,-0.086093,0.241782,-0.918306,-0.313459,0.000894,-0.004531,-0.007571,-5.479124,-29.952160,-14.430939,,,,,,,
1504199068.806579,0.661625,1.167562,-1.105589,0.554922,-0.531060,-0.112799,0.241088,-0.919797,-0.309598,-0.003051,0.004223,-0.016391,-5.252684,-30.252041,-13.978088,,,,,,,
1504199068.816589,0.666371,1.171005,-1.116483,0.524098,-0.524399,-0.125673,0.240595,-0.921142,-0.305959,-0.014079,0.029052,-0.016444,-5.252684,-30.252041,-13.978088,,,,,,,
1504199068.826599,0.669661,1.173985,-1.125925,0.470658,-0.532487,-0.120413,0.239896,-0.922298,-0.303012,-0.026029,0.041225,-0.010068,-5.027388,-30.326183,-13.901947,,,,,,,
1504199068.836609,0.672912,1.176699,-1.135307,0.422513,-0.543821,-0.111938,0.239319,-0.923344,-0.300272,-0.028534,0.038120,0.000284,-5.027388,-30.326183,-13.901947,,,,,,,
1504199068.846618,0.675648,1.179154,-1.144019,0.394927,-0.521221,-0.106688,0.238721,-0.924283,-0.297847,-0.041333,0.023191,0.007259,-4.801939,-30.325771,-13.601410,,,,,,,
1504199068.856628,0.678914,1.181646,-1.152707,0.404968,-0.461638,-0.099304,0.238245,-0.925232,-0.295272,-0.055246,0.025558,0.015868,-4.801939,-30.325771,-13.601410,,,,,,,
1504199068.866638,0.677590,1.185591,-1.156553,0.423505,-0.398930,-0.080154,0.235564,-0.926721,-0.292741,-0.060820,0.021768,0.004564,-4.501341,-30.474728,-13.449554,,,,,,,
1504199068.876648,0.682992,1.188741,-1.165791,0.478774,-0.285377,-0.069585,0.235298,-0.927900,-0.289199,-0.072273,0.009352,-0.015428,-4.501341,-30.474728,-13.449554,,,,,,,
1504199068.886657,0.690457,1.192325,-1.175726,0.522544,-0.138701,-0.053757,0.235331,-0.929231,-0.284868,-0.079768,0.009187,-0.024626,-4.350660,-30.699200,-13.372467,,,,,,,
1504199068.896667,0.699615,1.196266,-1.185950,0.550176,-0.003623,-0.029397,0.235570,-0.930680,-0.279897,-0.081349,-0.001770,-0.050609,-4.350660,-30.699200,-13.372467,,,,,,,
1504199068.906677,0.692865,1.200881,-1.180224,0.571165,0.108102,-0.000715,0.230929,-0.932358,-0.278173,-0.078494,-0.030136,-0.079371,-4.350843,-30.624203,-13.373047,,,,,,,
1504199068.916656,0.703610,1.205443,-1.189838,0.570692,0.199475,0.039703,0.231151,-0.933998,-0.272430,-0.068492,-0.040642,-0.103760,-4.350843,-30.624203,-13.373047,,,,,,,
1504199068.926666,0.714192,1.210134,-1.198548,0.550697,0.259271,0.080124,0.231148,-0.935663,-0.266654,-0.051720,-0.045751,-0.096077,-4.125471,-30.548946,-12.998047,,,,,,,
1504199068.936677,0.725102,1.215095,-1.206756,0.570405,0.347512,0.120564,0.230962,-0.937402,-0.260640,-0.029897,-0.032950,-0.078807,-4.125471,-30.548946,-12.998047,,,,,,,
1504199068.946687,0.734296,1.220121,-1.212360,0.614933,0.459021,0.140726,0.230189,-0.939141,-0.255005,-0.016642,-0.010520,-0.052765,-3.899611,-30.848080,-12.920258,,,,,,,
1504199068.956695,0.746674,1.225531,-1.220524,0.578617,0.469949,0.166261,0.229873,-0.940986,-0.248404,-0.021911,0.012168,-0.050562,-3.899611,-30.848080,-12.920258,,,,,,,
1504199068.966705,0.759013,1.231108,-1.228531,0.607539,0.496331,0.185478,0.229306,-0.942858,-0.241737,-0.045453,0.017504,-0.058205,-3.599470,-30.772182,-12.695068,,,,,,,
1504199068.976715,0.775282,1.237348,-1.239569,0.715118,0.597758,0.170542,0.229086,-0.944919,-0.233768,-0.067587,0.045185,-0.029584,-3.599470,-30.772182,-12.695068,,,,,,,
1504199068.986725,0.790492,1.243570,-1.249918,0.676078,0.527737,0.184475,0.228431,-0.946938,-0.226116,-0.068153,0.026207,-0.034565,-3.598265,-30.848522,-12.019470,,,,,,,
1504199068.996734,0.803966,1.249141,-1.258971,0.562502,0.477507,0.200378,0.227655,-0.948713,-0.219354,-0.065469,0.016584,-0.084814,-3.598265,-30.848522,-12.019470,,,,,,,
1504199069.006744,0.815944,1.254020,-1.266656,0.507209,0.484384,0.173585,0.226891,-0.950245,-0.213437,-0.047509,0.018650,-0.055545,-3.447538,-30.998302,-11.792999,,,,,,,
1504199069.016754,0.832119,1.259050,-1.277086,0.598286,0.650958,0.148899,0.226777,-0.951799,-0.206519,-0.063005,0.051241,0.014563,-3.447538,-30.998302,-11.792999,,,,,,,
1504199069.026764,0.848925,1.264447,-1.288376,0.598684,0.580603,0.170372,0.226357,-0.953441,-0.199281,-0.074624,0.050243,0.055254,-3.596754,-31.000011,-11.268341,,,,,,,
1504199069.036773,0.861582,1.269079,-1.296493,0.446099,0.461421,0.195936,0.225507,-0.954828,-0.193522,-0.045285,-0.014212,0.000819,-3.596754,-31.000011,-11.268341,,,,,,,
1504199069.046783,0.868517,1.272720,-1.299805,0.275453,0.349849,0.218252,0.224188,-0.955903,-0.189706,-0.036627,-0.060897,0.000696,-3.595732,-31.225613,-10.966675,,,,,,,
1504199069.056793,0.873103,1.276033,-1.301405,0.252593,0.295688,0.222578,0.222628,-0.956871,-0.186641,-0.038058,-0.088753,0.024379,-3.595732,-31.225613,-10.966675,,,,,,,
1504199069.066803,0.878695,1.279570,-1.304108,0.298552,0.303837,0.219441,0.221061,-0.957893,-0.183232,-0.023017,-0.083917,0.055073,-3.595778,-31.076061,-10.742767,,,,,,,
1504199069.076813,0.885523,1.283241,-1.308006,0.319991,0.311129,0.210926,0.219583,-0.958940,-0.179492,-0.008478,-0.052977,0.049075,-3.595778,-31.076061,-10.742767,,,,,,,
1504199069.086822,0.892564,1.286799,-1.312126,0.310386,0.304824,0.201314,0.218183,-0.959943,-0.175799,-0.009153,-0.039462,0.023852,-3.295897,-31.074566,-10.817017,,,,,,,
1504199069.096832,0.899212,1.290249,-1.316026,0.296347,0.283628,0.201327,0.216753,-0.960904,-0.172283,-0.006350,-0.033893,0.015591,-3.295897,-31.074566,-10.817017,,,,,,,
1504199069.106842,0.906182,1.293808,-1.320409,0.320778,0.272766,0.205658,0.215255,-0.961883,-0.168658,-0.001251,-0.028427,0.023760,-3.819838,-31.227825,-10.367188,,,,,,,
1504199069.116852,0.913595,1.297478,-1.325370,0.332406,0.259882,0.206768,0.213704,-0.962880,-0.164900,0.003978,-0.031047,0.023985,-3.819838,-31.227825,-10.367188,,,,,,,
1504199069.126861,0.920790,1.301173,-1.330309,0.326855,0.237543,0.214270,0.212051,-0.963871,-0.161204,0.003510,-0.023113,0.006175,-3.969831,-31.228497,-10.367554,,,,,,,
1504199069.136871,0.928030,1.304896,-1.335502,0.337384,0.219342,0.213253,0.210338,-0.964856,-0.157512,0.004506,-0.002887,-0.001469,-3.969831,-31.228497,-10.367554,,,,,,,
1504199069.146881,0.932502,1.308328,-1.338667,0.235033,0.107211,0.232486,0.208380,-0.965752,-0.154596,0.007730,0.025857,0.016748,-3.969114,-31.378948,-10.141418,,,,,,,
1504199069.156891,0.933501,1.311354,-1.339211,0.190757,0.039380,0.230394,0.206184,-0.966533,-0.152648,0.017815,0.048931,0.036971,-3.969114,-31.378948,-10.141418,,,,,,,
1504199069.166900,0.936587,1.314494,-1.342137,0.269765,0.027040,0.199598,0.204209,-0.967334,-0.150213,0.028380,0.084399,0.082952,-3.893660,-31.379208,-9.841248,,,,,,,
1504199069.176910,0.942976,1.317758,-1.348722,0.340187,-0.004390,0.148540,0.202608,-0.968156,-0.147049,0.036574,0.136522,0.074585,-3.893660,-31.379208,-9.841248,,,,,,,
1504199069.186889,0.947835,1.320081,-1.354774,0.208137,-0.152410,0.074922,0.201493,-0.968735,-0.144750,0.036254,0.152436,0.008825,-4.192915,-31.456310,-9.466431,,,,,,,
1504199069.196899,0.954211,1.319945,-1.363118,0.384359,-0.166581,0.015462,0.202519,-0.968701,-0.143539,-0.001286,0.091214,-0.004975,-4.192915,-31.456310,-9.466431,,,,,,,
1504199069.206909,0.976037,1.323111,-1.386750,0.752720,-0.069332,-0.096149,0.203063,-0.969482,-0.137366,0.008851,0.033569,0.084250,-4.118696,-31.006420,-9.244598,,,,,,,
1504199069.216919,1.008850,1.327042,-1.420659,0.925171,0.001730,-0.117323,0.204233,-0.970439,-0.128598,0.057196,0.081340,0.072614,-4.118696,-31.006420,-9.244598,,,,,,,
1504199069.226928,1.032101,1.329555,-1.447751,0.597539,-0.412215,-0.122498,0.205074,-0.971042,-0.122564,0.134816,0.023487,-0.023585,-4.192503,-31.307354,-8.942535,,,,,,,
1504199069.236938,1.050352,1.330172,-1.471931,0.590254,-0.529361,-0.132988,0.206757,-0.971189,-0.118503,0.165298,0.001676,-0.057415,-4.192503,-31.307354,-8.942535,,,,,,,
1504199069.246948,1.081097,1.332534,-1.507467,0.950746,-0.336164,-0.224500,0.208277,-0.971749,-0.111012,0.103857,0.042703,0.141774,-3.892576,-31.006893,-8.494019,,,,,,,
1504199069.256958,1.125834,1.335377,-1.556692,1.202973,-0.316872,-0.279602,0.210539,-0.972417,-0.100397,0.067186,0.089192,0.240396,-3.892576,-31.006893,-8.494019,,,,,,,
1504199069.266968,1.174893,1.337493,-1.610868,1.235816,-0.381020,-0.336005,0.213310,-0.972908,-0.089158,0.028008,0.057869,0.127152,-3.964643,-31.683880,-7.664154,,,,,,,
1504199069.276977,1.264917,1.340305,-1.700812,2.521036,0.538818,-0.484836,0.217851,-0.973554,-0.068795,-0.021318,0.063993,0.026040,-3.964643,-31.683880,-7.664154,,,,,,,
1504199069.286987,1.389044,1.341948,-1.825711,2.709214,0.023700,-0.533769,0.223119,-0.973928,-0.041005,-0.026403,0.125540,0.127965,-3.813780,-31.534847,-6.839874,,,,,,,
1504199069.296997,1.476273,1.339409,-1.921924,1.950782,-0.796892,-0.597681,0.228305,-0.973349,-0.021645,0.024946,-0.020029,-0.167641,-3.813780,-31.534847,-6.839874,,,,,,,
1504199069.307007,1.526798,1.334089,-1.982096,1.192927,-0.727741,-0.635408,0.234276,-0.972115,-0.010314,0.058342,-0.178977,-0.093491,-3.210508,-31.760738,-5.036682,,,,,,,
1504199069.317016,1.569775,1.327189,-2.032659,1.236060,-0.606502,-0.746556,0.241205,-0.970474,-0.000246,-0.019800,-0.254608,0.254000,-3.210508,-31.760738,-5.036682,,,,,,,
1504199069.327026,1.621744,1.318420,-2.091534,1.525808,-0.473430,-0.869040,0.249382,-0.968322,0.012716,0.047478,-0.187837,0.296167,-2.759413,-31.610668,-4.061676,,,,,,,
