timestamp(unix),attitude_roll(radians),attitude_pitch(radians),attitude_yaw(radians),rotation_rate_x(radians/s),rotation_rate_y(radians/s),rotation_rate_z(radians/s),gravity_x(G),gravity_y(G),gravity_z(G),user_acc_x(G),user_acc_y(G),user_acc_z(G),magnetic_field_x(microteslas),magnetic_field_y(microteslas),magnetic_field_z(microteslas),latitude(degree),longitude(degree),altitude(meter),speed(m/s),course(degree),timestamp(unix),User Mark
1504199262.626828,-0.064065,0.686632,1.723039,-0.137106,-0.053354,0.047222,-0.049513,-0.633936,-0.771799,0.009046,0.006449,-0.009940,16.527575,-19.704540,-26.227753,,,,,,,
1504199262.636838,-0.065520,0.684868,1.723338,-0.186876,-0.150960,0.029162,-0.050710,-0.632571,-0.772841,0.023274,0.017535,-0.039507,16.376894,-19.480053,-26.304840,,,,,,,
1504199262.646848,-0.066737,0.681658,1.722666,-0.220591,-0.245496,0.003649,-0.051785,-0.630082,-0.774800,0.030590,0.016373,-0.045405,16.376894,-19.480053,-26.304840,,,,,,,
1504199262.656857,-0.069270,0.679301,1.722128,-0.244271,-0.295344,-0.034730,-0.053850,-0.628249,-0.776146,0.025957,0.011565,-0.035011,16.076677,-19.481106,-26.455566,,,,,,,
1504199262.666867,-0.071662,0.676746,1.721215,-0.266537,-0.291941,-0.057190,-0.055821,-0.626260,-0.777614,0.020482,0.008187,-0.025182,16.076677,-19.481106,-26.455566,,,,,,,
1504199262.676877,-0.073573,0.674073,1.720017,-0.274685,-0.256687,-0.078615,-0.057430,-0.624173,-0.779172,0.009197,0.008466,-0.011996,15.851519,-19.332424,-26.307251,,,,,,,
1504199262.686887,-0.074827,0.671212,1.718547,-0.270087,-0.220485,-0.087210,-0.058540,-0.621935,-0.780877,0.006294,0.008563,0.001016,15.851519,-19.332424,-26.307251,,,,,,,
1504199262.696896,-0.075958,0.668726,1.717224,-0.250632,-0.186551,-0.082967,-0.059540,-0.619987,-0.782350,0.006241,0.012260,0.005708,16.075731,-19.106106,-26.458374,,,,,,,
1504199262.706906,-0.076813,0.666472,1.716026,-0.225842,-0.150532,-0.075516,-0.060316,-0.618217,-0.783690,0.000212,0.015021,0.005339,16.075731,-19.106106,-26.458374,,,,,,,
1504199262.716916,-0.077547,0.664546,1.714996,-0.187371,-0.134878,-0.062668,-0.060983,-0.616702,-0.784831,0.009088,0.012744,-0.001317,15.550097,-19.032864,-26.760223,,,,,,,
1504199262.726926,-0.077740,0.662899,1.713818,-0.130985,-0.140687,-0.040148,-0.061214,-0.615405,-0.785831,0.021480,0.007006,-0.006573,15.550097,-19.032864,-26.760223,,,,,,,
1504199262.736936,-0.079011,0.662120,1.713448,-0.062914,-0.151929,-0.015460,-0.062250,-0.614790,-0.786230,0.029932,0.000761,-0.006891,15.549944,-19.107418,-26.984680,,,,,,,
1504199262.746945,-0.080489,0.661946,1.713486,-0.002156,-0.141803,0.012380,-0.063421,-0.614653,-0.786244,0.037100,-0.000734,-0.002239,15.549944,-19.107418,-26.984680,,,,,,,
1504199262.756955,-0.082066,0.662196,1.713921,0.035179,-0.126154,0.039102,-0.064649,-0.614850,-0.785990,0.033643,-0.000461,-0.002676,15.774630,-19.031261,-27.059692,,,,,,,
1504199262.766965,-0.082566,0.662527,1.713918,0.042699,-0.113425,0.048693,-0.065024,-0.615111,-0.785754,0.029945,0.001967,-0.007474,15.774630,-19.031261,-27.059692,,,,,,,
1504199262.776964,-0.084072,0.662815,1.714514,0.027772,-0.115428,0.043334,-0.066193,-0.615338,-0.785479,0.033036,0.009122,-0.014509,15.699938,-18.882488,-26.610992,,,,,,,
1504199262.786973,-0.085566,0.662846,1.715015,-0.002085,-0.117306,0.036881,-0.067365,-0.615363,-0.785360,0.030515,0.013602,-0.020045,15.699938,-18.882488,-26.610992,,,,,,,
1504199262.796983,-0.086008,0.661852,1.714807,-0.028671,-0.110682,0.028280,-0.067764,-0.614579,-0.785939,0.025436,0.017106,-0.022533,15.549974,-19.256969,-27.208588,,,,,,,
1504199262.806993,-0.086484,0.660895,1.714709,-0.027609,-0.104304,0.037873,-0.068189,-0.613824,-0.786493,0.024167,0.018456,-0.015204,15.549974,-19.256969,-27.208588,,,,,,,
1504199262.817003,-0.087277,0.660278,1.714907,-0.025340,-0.088335,0.035712,-0.068846,-0.613336,-0.786816,0.012663,0.016504,0.001034,15.849520,-19.030773,-27.134491,,,,,,,
1504199262.827012,-0.087580,0.659780,1.714864,-0.020969,-0.075575,0.034626,-0.069111,-0.612943,-0.787099,0.022938,0.019910,0.007299,15.849520,-19.030773,-27.134491,,,,,,,
1504199262.837022,-0.088111,0.659073,1.714822,-0.036045,-0.101008,0.020766,-0.069567,-0.612385,-0.787493,0.017870,0.023899,0.007372,15.549868,-19.256817,-27.283569,,,,,,,
1504199262.847032,-0.088813,0.657830,1.714250,-0.034867,-0.128658,-0.047498,-0.070187,-0.611401,-0.788202,0.013348,0.037838,-0.001547,15.549868,-19.256817,-27.283569,,,,,,,
1504199262.857042,-0.088397,0.656373,1.712216,-0.022683,-0.130794,-0.143542,-0.069938,-0.610247,-0.789118,0.029090,0.078433,0.024637,15.548738,-19.031078,-27.660248,,,,,,,
1504199262.867021,-0.088090,0.656313,1.709874,-0.023318,-0.107295,-0.192685,-0.069699,-0.610200,-0.789176,0.010754,0.076813,0.040488,15.548738,-19.031078,-27.660248,,,,,,,
1504199262.877031,-0.087496,0.656216,1.707385,-0.030627,-0.088053,-0.193799,-0.069235,-0.610123,-0.789276,-0.022302,0.050766,0.036453,15.623476,-18.880886,-27.586212,,,,,,,
1504199262.887040,-0.087004,0.655887,1.705041,-0.053205,-0.099605,-0.177807,-0.068864,-0.609863,-0.789509,-0.031737,0.044738,0.027028,15.623476,-18.880886,-27.586212,,,,,,,
1504199262.897050,-0.088071,0.654363,1.703618,-0.077961,-0.118624,-0.166066,-0.069789,-0.608654,-0.790361,-0.032216,0.048412,0.016999,15.773211,-18.730358,-27.511963,,,,,,,
1504199262.907060,-0.087886,0.653549,1.701452,-0.103486,-0.107758,-0.165062,-0.069686,-0.608008,-0.790867,-0.020494,0.059211,0.016239,15.773211,-18.730358,-27.511963,,,,,,,
1504199262.917070,-0.087411,0.652515,1.699248,-0.123523,-0.077757,-0.164082,-0.069365,-0.607187,-0.791526,-0.015901,0.057352,0.016028,15.623659,-18.731640,-27.212341,,,,,,,
1504199262.927080,-0.086433,0.651409,1.697039,-0.123072,-0.021284,-0.164181,-0.068648,-0.606308,-0.792261,-0.019715,0.048645,0.018641,15.623659,-18.731640,-27.212341,,,,,,,
1504199262.937089,-0.085596,0.650049,1.695433,-0.099002,0.058413,-0.156802,-0.068055,-0.605226,-0.793140,-0.020262,0.037477,0.029788,15.622713,-18.580883,-27.588470,,,,,,,
1504199262.947099,-0.083518,0.649428,1.693430,-0.067825,0.091184,-0.151469,-0.066439,-0.604731,-0.793654,-0.019499,0.017145,0.029906,15.622713,-18.580883,-27.588470,,,,,,,
1504199262.957109,-0.081520,0.649100,1.691473,-0.038058,0.077087,-0.152460,-0.064870,-0.604470,-0.793983,-0.013637,-0.004158,0.008048,15.847979,-18.729733,-27.661774,,,,,,,
1504199262.967119,-0.079714,0.649046,1.689520,-0.010449,0.058748,-0.155582,-0.063438,-0.604427,-0.794131,0.000205,-0.010854,-0.006528,15.847979,-18.729733,-27.661774,,,,,,,
1504199262.977128,-0.077529,0.649517,1.687366,0.004470,0.060758,-0.148091,-0.061680,-0.604802,-0.793984,0.010518,-0.021632,-0.010429,16.147936,-18.578823,-27.437164,,,,,,,
1504199262.987138,-0.075896,0.649689,1.685724,0.006498,0.062848,-0.123541,-0.060376,-0.604939,-0.793980,0.014920,-0.033794,-0.011623,16.147936,-18.578823,-27.437164,,,,,,,
1504199262.997148,-0.074633,0.649732,1.684535,-0.005532,0.050120,-0.085113,-0.059371,-0.604973,-0.794029,0.012450,-0.041862,-0.022667,16.072527,-18.503857,-27.587921,,,,,,,
1504199263.007158,-0.073815,0.649562,1.683715,-0.028259,0.027899,-0.056293,-0.058729,-0.604838,-0.794180,0.015272,-0.042745,-0.036753,16.072527,-18.503857,-27.587921,,,,,,,
1504199263.017167,-0.072243,0.649321,1.682466,-0.052021,0.003584,-0.037085,-0.057492,-0.604646,-0.794417,0.030071,-0.038955,-0.045595,15.996813,-18.129498,-27.440918,,,,,,,
1504199263.027177,-0.072225,0.648758,1.682116,-0.059830,-0.028337,-0.019964,-0.057501,-0.604197,-0.794758,0.037848,-0.040655,-0.053585,15.996813,-18.129498,-27.440918,,,,,,,
1504199263.037187,-0.072536,0.648274,1.681922,-0.046145,-0.045509,-0.010304,-0.057770,-0.603811,-0.795031,0.042435,-0.033411,-0.048200,15.847826,-18.580029,-27.512909,,,,,,,
1504199263.047197,-0.072927,0.647993,1.681821,-0.021603,-0.042519,-0.005997,-0.058093,-0.603588,-0.795177,0.044116,-0.021214,-0.038334,15.847826,-18.580029,-27.512909,,,,,,,
1504199263.057207,-0.071782,0.648000,1.680858,0.012677,-0.028922,-0.012374,-0.057182,-0.603593,-0.795240,0.038185,-0.013747,-0.027148,15.847414,-18.504726,-27.663452,,,,,,,
1504199263.067216,-0.071741,0.648456,1.680562,0.054551,-0.007935,-0.031552,-0.057130,-0.603957,-0.794967,0.032792,-0.005083,-0.014680,15.847414,-18.504726,-27.663452,,,,,,,
1504199263.077226,-0.071367,0.649322,1.679995,0.092129,0.005635,-0.057128,-0.056795,-0.604646,-0.794467,0.033419,0.004701,-0.009595,15.847078,-18.280025,-27.515137,,,,,,,
1504199263.087236,-0.070808,0.650579,1.679240,0.130648,0.010660,-0.070946,-0.056297,-0.605647,-0.793739,0.033959,0.008601,-0.009712,15.847078,-18.280025,-27.515137,,,,,,,
1504199263.097246,-0.069097,0.652050,1.677925,0.164958,0.035958,-0.064533,-0.054878,-0.606817,-0.792945,0.026939,0.005423,-0.006067,15.697268,-18.355694,-27.514954,,,,,,,
1504199263.107225,-0.068246,0.653981,1.677500,0.198169,0.067628,-0.041048,-0.054123,-0.608351,-0.791821,0.022324,-0.001635,-0.000919,15.697268,-18.355694,-27.514954,,,,,,,
1504199263.117235,-0.067348,0.656096,1.677520,0.214241,0.099425,-0.003718,-0.053325,-0.610028,-0.790583,0.027690,-0.008395,0.003138,15.623140,-18.656185,-27.437897,,,,,,,
1504199263.127244,-0.066490,0.658199,1.677988,0.208893,0.119678,0.031462,-0.052561,-0.611693,-0.789347,0.033305,-0.013902,-0.002248,15.623140,-18.656185,-27.437897,,,,,,,
1504199263.137254,-0.064572,0.660530,1.678062,0.193923,0.127260,0.050629,-0.050955,-0.613535,-0.788022,0.029730,-0.016119,-0.006931,15.923403,-18.804684,-27.511017,,,,,,,
1504199263.147264,-0.063793,0.662246,1.678878,0.166179,0.127488,0.051647,-0.050274,-0.614889,-0.787009,0.027569,-0.008478,-0.007882,15.923403,-18.804684,-27.511017,,,,,,,
1504199263.157274,-0.063054,0.663591,1.679521,0.127679,0.107573,0.037740,-0.049640,-0.615949,-0.786220,0.026477,0.003233,-0.009251,15.998964,-18.805096,-27.135803,,,,,,,
1504199263.167283,-0.062400,0.664563,1.679882,0.089165,0.081272,0.016371,-0.049088,-0.616715,-0.785654,0.017945,0.013490,-0.012152,15.998964,-18.805096,-27.135803,,,,,,,
1504199263.177293,-0.061380,0.664553,1.679665,0.057074,0.057051,-0.007126,-0.048287,-0.616707,-0.785710,0.010934,0.022439,-0.007564,15.548403,-18.582119,-27.138611,,,,,,,
1504199263.187303,-0.060790,0.664885,1.679423,0.025005,0.038153,-0.025294,-0.047812,-0.616969,-0.785534,0.003638,0.026103,-0.003300,15.548403,-18.582119,-27.138611,,,,,,,
1504199263.197313,-0.060225,0.664955,1.679058,-0.000613,0.034107,-0.029601,-0.047365,-0.617024,-0.785518,-0.004881,0.024037,0.002025,15.998583,-18.655102,-27.136932,,,,,,,
1504199263.207322,-0.059621,0.664879,1.678729,-0.011253,0.041647,-0.023228,-0.046893,-0.616964,-0.785593,-0.011883,0.019583,0.007212,15.998583,-18.655102,-27.136932,,,,,,,
1504199263.217332,-0.059637,0.664485,1.678938,-0.016587,0.051255,-0.008307,-0.046920,-0.616654,-0.785835,-0.015015,0.018983,0.014457,15.999269,-18.880245,-27.060272,,,,,,,
1504199263.227342,-0.059105,0.664364,1.678993,-0.009164,0.057568,0.010908,-0.046507,-0.616559,-0.785934,-0.021654,0.015256,0.014846,15.999269,-18.880245,-27.060272,,,,,,,
1504199263.237352,-0.058762,0.664323,1.679387,-0.000768,0.057470,0.038675,-0.046239,-0.616526,-0.785975,-0.025111,0.009379,0.015468,16.074068,-18.804913,-27.060638,,,,,,,
1504199263.247362,-0.058840,0.664166,1.680248,-0.017118,0.039447,0.079240,-0.046306,-0.616403,-0.786068,-0.025365,0.003747,0.012509,16.074068,-18.804913,-27.060638,,,,,,,
1504199263.257371,-0.060117,0.663908,1.681993,-0.054887,0.010938,0.119790,-0.047319,-0.616199,-0.786168,-0.017409,-0.018612,-0.007793,16.073687,-18.654919,-27.061768,,,,,,,
1504199263.267381,-0.061322,0.662976,1.683751,-0.094746,-0.017537,0.150725,-0.048302,-0.615465,-0.786683,-0.006920,-0.025969,-0.025070,16.073687,-18.654919,-27.061768,,,,,,,
1504199263.277391,-0.062889,0.661764,1.685789,-0.115264,-0.034440,0.173135,-0.049581,-0.614509,-0.787350,0.003133,-0.026146,-0.026508,16.073778,-18.729763,-27.136169,,,,,,,
1504199263.287401,-0.064575,0.660435,1.688044,-0.120624,-0.026955,0.190191,-0.050961,-0.613460,-0.788080,0.007031,-0.027302,-0.017630,16.073778,-18.729763,-27.136169,,,,,,,
1504199263.297410,-0.066020,0.659760,1.690355,-0.100266,-0.010077,0.200869,-0.052127,-0.612927,-0.788418,0.004062,-0.030277,-0.010517,16.299257,-18.878902,-27.059509,,,,,,,
1504199263.307420,-0.067425,0.658898,1.692933,-0.061605,0.027955,0.211543,-0.053271,-0.612246,-0.788871,0.006289,-0.028135,-0.003137,16.299257,-18.878902,-27.059509,,,,,,,
1504199263.317430,-0.068341,0.658637,1.695716,0.007167,0.097704,0.225415,-0.054004,-0.612040,-0.788981,0.004642,-0.022009,0.012797,16.224489,-19.103786,-27.283020,,,,,,,
1504199263.327440,-0.068545,0.659185,1.698873,0.097472,0.200295,0.253143,-0.054142,-0.612473,-0.788635,-0.000729,-0.021393,0.031799,16.224489,-19.103786,-27.283020,,,,,,,
1504199263.337449,-0.068587,0.662535,1.703024,0.233863,0.330210,0.286242,-0.054034,-0.615118,-0.786581,-0.018751,-0.030405,0.044135,15.774111,-18.955807,-27.285248,,,,,,,
1504199263.347459,-0.066788,0.665892,1.706973,0.397034,0.453543,0.284173,-0.052481,-0.617761,-0.784613,-0.011225,-0.018485,0.071585,16.000017,-19.180248,-27.058014,,,,,,,
1504199263.357438,-0.064011,0.670697,1.710631,0.525816,0.520725,0.241582,-0.050111,-0.621532,-0.781784,0.007997,0.035824,0.082077,16.000017,-19.180248,-27.058014,,,,,,,
1504199263.367448,-0.060551,0.676476,1.713474,0.607284,0.521198,0.165936,-0.047188,-0.626049,-0.778355,-0.012291,0.084957,0.032352,16.301332,-19.479656,-26.680023,,,,,,,
1504199263.377458,-0.056748,0.682707,1.715348,0.646854,0.485786,0.090282,-0.044006,-0.630895,-0.774619,0.000884,0.089132,-0.006677,16.301332,-19.479656,-26.680023,,,,,,,
1504199263.387468,-0.053092,0.689197,1.716385,0.648676,0.410174,0.031711,-0.040955,-0.635918,-0.770669,0.028763,0.082848,-0.034415,16.528368,-19.929836,-26.076080,,,,,,,
1504199263.397478,-0.049894,0.695402,1.716873,0.608733,0.330618,-0.002374,-0.038292,-0.640694,-0.766841,0.029778,0.068246,-0.056707,16.528368,-19.929836,-26.076080,,,,,,,
1504199263.407487,-0.047245,0.700852,1.716992,0.516427,0.245713,-0.021564,-0.036095,-0.644869,-0.763440,0.042824,0.066088,-0.067416,16.529604,-20.155743,-25.624390,,,,,,,
1504199263.417497,-0.044391,0.702495,1.715964,0.349971,0.105369,-0.034418,-0.033869,-0.646124,-0.762481,0.046107,0.065527,-0.091844,16.529604,-20.155743,-25.624390,,,,,,,
1504199263.427507,-0.044286,0.704817,1.715290,0.188632,-0.082935,-0.075994,-0.033723,-0.647894,-0.760983,0.001100,0.083365,-0.138064,16.380129,-20.456112,-25.772491,,,,,,,
1504199263.437517,-0.045359,0.705318,1.713610,-0.007662,-0.258134,-0.147541,-0.034525,-0.648276,-0.760622,-0.011298,0.110404,-0.107405,16.380129,-20.456112,-25.772491,,,,,,,
1504199263.447526,-0.047224,0.703810,1.711015,-0.206793,-0.377914,-0.203180,-0.035989,-0.647127,-0.761532,0.007669,0.105196,-0.122363,16.529222,-20.229992,-25.998810,,,,,,,
1504199263.457536,-0.049414,0.698368,1.708093,-0.301767,-0.390983,-0.225732,-0.037830,-0.642969,-0.764957,-0.009899,0.070032,-0.114269,16.529222,-20.229992,-25.998810,,,,,,,
1504199263.467546,-0.051007,0.695580,1.704967,-0.279002,-0.345351,-0.224706,-0.039140,-0.640831,-0.766684,-0.018767,0.041282,-0.030405,16.303698,-20.155560,-26.224945,,,,,,,
1504199263.477556,-0.052107,0.693458,1.701929,-0.203903,-0.291627,-0.221468,-0.040054,-0.639201,-0.767996,-0.033737,0.017710,0.033972,16.303698,-20.155560,-26.224945,,,,,,,
1504199263.487565,-0.052666,0.692133,1.698920,-0.123392,-0.231549,-0.223570,-0.040528,-0.638181,-0.768819,-0.031829,0.007932,0.046773,16.377916,-19.705654,-26.003113,,,,,,,
1504199263.497575,-0.053641,0.692207,1.696677,-0.040642,-0.156584,-0.221419,-0.041275,-0.638238,-0.768732,-0.023361,0.013345,0.045267,16.377916,-19.705654,-26.003113,,,,,,,
1504199263.507585,-0.052840,0.692490,1.693911,0.035691,-0.077304,-0.210752,-0.040650,-0.638456,-0.768584,-0.027923,0.012677,0.047286,16.302355,-19.705257,-26.378296,,,,,,,
1504199263.517595,-0.051516,0.693402,1.691381,0.094805,-0.013870,-0.195818,-0.039602,-0.639157,-0.768056,-0.033991,0.002713,0.042897,16.302355,-19.705257,-26.378296,,,,,,,
1504199263.527604,-0.049884,0.694748,1.689084,0.134500,0.024147,-0.178738,-0.038306,-0.640192,-0.767259,-0.029657,-0.006827,0.036165,16.151628,-19.331219,-26.231506,,,,,,,
1504199263.537614,-0.049099,0.697261,1.687575,0.149469,0.036789,-0.162719,-0.037624,-0.642120,-0.765680,-0.020664,-0.016571,0.024576,16.151628,-19.331219,-26.231506,,,,,,,
1504199263.547624,-0.047516,0.698780,1.685668,0.139769,0.032594,-0.149920,-0.036366,-0.643284,-0.764763,-0.015133,-0.023311,0.012886,16.527727,-19.629986,-26.003326,,,,,,,
1504199263.557634,-0.046089,0.700000,1.683829,0.105501,0.020083,-0.144620,-0.035238,-0.644218,-0.764030,-0.010401,-0.023629,-0.002434,16.527727,-19.629986,-26.003326,,,,,,,
1504199263.567644,-0.044818,0.700772,1.682000,0.059487,0.004476,-0.142537,-0.034245,-0.644808,-0.763577,-0.005443,-0.023313,-0.011432,16.526628,-19.329540,-26.230591,,,,,,,
1504199263.577653,-0.043632,0.701404,1.680057,0.009199,-0.016414,-0.146858,-0.033321,-0.645291,-0.763210,0.000530,-0.023410,-0.011891,16.526628,-19.329540,-26.230591,,,,,,,
1504199263.587663,-0.042820,0.701199,1.678126,-0.039105,-0.052248,-0.145811,-0.032707,-0.645135,-0.763369,0.007500,-0.021705,-0.014204,16.527452,-19.480129,-25.929474,,,,,,,
1504199263.597642,-0.042349,0.700485,1.676161,-0.090608,-0.089119,-0.146903,-0.032368,-0.644588,-0.763844,0.015430,-0.020420,-0.015834,16.527452,-19.480129,-25.929474,,,,,,,
1504199263.607652,-0.042261,0.699350,1.674189,-0.128274,-0.128238,-0.144764,-0.032331,-0.643720,-0.764577,0.020414,-0.019320,-0.017527,16.751818,-19.403530,-26.229462,,,,,,,
1504199263.617662,-0.041929,0.698188,1.671898,-0.138478,-0.183588,-0.112667,-0.032109,-0.642830,-0.765335,0.019566,-0.018012,-0.013519,16.751818,-19.403530,-26.229462,,,,,,,
1504199263.627672,-0.043302,0.696898,1.670940,-0.126092,-0.201862,-0.058176,-0.033195,-0.641842,-0.766118,0.026908,-0.047840,-0.012095,16.751436,-19.253521,-26.230591,,,,,,,
1504199263.637681,-0.044961,0.695777,1.670492,-0.110172,-0.187117,-0.017613,-0.034499,-0.640982,-0.766780,0.040938,-0.049188,0.002101,16.751436,-19.253521,-26.230591,,,,,,,
1504199263.647691,-0.046981,0.694968,1.670883,-0.070897,-0.170460,0.049672,-0.036071,-0.640361,-0.767227,0.051559,-0.049474,0.006225,16.751131,-19.402630,-26.679474,,,,,,,
1504199263.657701,-0.046668,0.696549,1.670735,-0.024720,-0.092024,0.118982,-0.035784,-0.641574,-0.766226,0.052157,-0.066220,0.011389,16.751131,-19.402630,-26.679474,,,,,,,
1504199263.667711,-0.048420,0.696618,1.672956,0.027854,-0.012608,0.187247,-0.037124,-0.641627,-0.766118,0.051544,-0.067464,0.027409,16.526628,-19.329540,-26.230591,,,,,,,
1504199263.677720,-0.050192,0.697207,1.675922,0.082299,0.019929,0.233182,-0.038463,-0.642079,-0.765673,0.053646,-0.070094,0.025240,16.526628,-19.329540,-26.230591,,,,,,,
1504199263.687730,-0.051804,0.698212,1.679143,0.122009,0.053694,0.240663,-0.039664,-0.642849,-0.764965,0.059378,-0.045078,0.011211,16.151186,-19.330624,-26.531494,,,,,,,
1504199263.697740,-0.050434,0.700072,1.680569,0.137367,0.091981,0.218193,-0.038555,-0.644273,-0.763823,0.058468,-0.017654,0.001510,16.151186,-19.330624,-26.531494,,,,,,,
1504199263.707750,-0.050961,0.701317,1.683064,0.131371,0.113391,0.171179,-0.038917,-0.645225,-0.763001,0.036629,0.006675,-0.001159,16.602678,-19.704357,-26.152557,,,,,,,
1504199263.717759,-0.050911,0.702405,1.684878,0.110358,0.122142,0.119892,-0.038843,-0.646055,-0.762302,0.034815,0.032454,-0.007749,16.602678,-19.704357,-26.152557,,,,,,,
1504199263.727769,-0.050666,0.703310,1.686211,0.090100,0.105291,0.089999,-0.038627,-0.646746,-0.761727,0.030631,0.038546,-0.008247,16.377794,-19.705517,-26.078125,,,,,,,
1504199263.737779,-0.049330,0.702993,1.686539,0.060983,0.067177,0.088942,-0.037619,-0.646504,-0.761983,0.030325,0.033055,-0.005977,16.377794,-19.705517,-26.078125,,,,,,,
1504199263.747789,-0.049827,0.703343,1.687863,0.033913,0.026891,0.103910,-0.037986,-0.646771,-0.761738,0.032921,0.027233,-0.011257,16.452837,-19.854717,-26.301819,,,,,,,
1504199263.757799,-0.050897,0.703488,1.689498,0.018562,-0.008175,0.130630,-0.038797,-0.646882,-0.761603,0.040887,0.018250,-0.017419,16.452837,-19.854717,-26.301819,,,,,,,
1504199263.767808,-0.052357,0.703602,1.691545,0.021547,-0.014627,0.163736,-0.039905,-0.646969,-0.761472,0.049243,0.003139,-0.011905,16.302721,-19.855251,-26.377197,,,,,,,
1504199263.777819,-0.052367,0.704352,1.692849,0.040574,-0.021184,0.189389,-0.039887,-0.647540,-0.760987,0.040452,-0.011929,0.003678,16.302721,-19.855251,-26.377197,,,,,,,
1504199263.787829,-0.054380,0.704751,1.695495,0.053250,-0.029825,0.201168,-0.041404,-0.647844,-0.760647,0.031273,-0.015028,0.000637,16.454195,-20.305019,-26.148438,,,,,,,
1504199263.797839,-0.056335,0.705337,1.698206,0.075782,-0.014027,0.201179,-0.042871,-0.648291,-0.760185,0.026971,-0.007807,-0.008141,16.454195,-20.305019,-26.148438,,,,,,,
1504199263.807848,-0.057876,0.706174,1.700799,0.101766,0.025200,0.188346,-0.044011,-0.648927,-0.759576,0.009755,-0.000380,-0.001074,15.928820,-20.157391,-26.150848,,,,,,,
1504199263.817858,-0.058996,0.707298,1.703328,0.132191,0.081445,0.168020,-0.044818,-0.649783,-0.758798,-0.004513,0.009646,0.010278,15.928820,-20.157391,-26.150848,,,,,,,
1504199263.827868,-0.059080,0.708749,1.705404,0.161589,0.138773,0.141285,-0.044826,-0.650885,-0.757852,-0.014027,0.020849,0.019724,16.153963,-20.081814,-25.925873,,,,,,,
1504199263.837878,-0.058587,0.710464,1.707179,0.185436,0.171633,0.118853,-0.044387,-0.652185,-0.756759,-0.022111,0.026377,0.019729,16.153963,-20.081814,-25.925873,,,,,,,
1504199263.847857,-0.057795,0.712390,1.708709,0.202662,0.178971,0.099656,-0.043715,-0.653645,-0.755538,-0.025881,0.027088,0.013534,16.154985,-20.531673,-25.997498,,,,,,,
1504199263.857867,-0.057997,0.713673,1.710690,0.197388,0.172630,0.076182,-0.043819,-0.654615,-0.754691,-0.024739,0.029707,0.006065,16.154985,-20.531673,-25.997498,,,,,,,
1504199263.867876,-0.056831,0.715392,1.711534,0.166604,0.172916,0.045174,-0.042875,-0.655913,-0.753618,-0.021914,0.036696,-0.006194,16.305361,-20.456753,-25.622681,,,,,,,
1504199263.877886,-0.055326,0.716696,1.711883,0.119824,0.172271,0.010937,-0.041693,-0.656897,-0.752827,-0.014505,0.044027,-0.010769,16.305361,-20.456753,-25.622681,,,,,,,
1504199263.887896,-0.053821,0.717510,1.711889,0.067382,0.140754,-0.007244,-0.040531,-0.657511,-0.752354,-0.006801,0.041681,-0.006557,16.154650,-20.306973,-25.849182,,,,,,,
1504199263.897906,-0.052900,0.716745,1.711972,0.010403,0.093254,0.001282,-0.039866,-0.656934,-0.752893,-0.003347,0.032010,-0.006506,16.154650,-20.306973,-25.849182,,,,,,,
1504199263.907916,-0.052462,0.716389,1.712163,-0.050893,0.045786,0.021540,-0.039548,-0.656666,-0.753144,-0.009372,0.025364,-0.004180,15.929537,-20.307842,-25.924744,,,,,,,
1504199263.917925,-0.052417,0.715387,1.712506,-0.114087,0.021787,0.032147,-0.039549,-0.655910,-0.753802,-0.012743,0.024532,-0.004498,15.929537,-20.307842,-25.924744,,,,,,,
1504199263.927935,-0.052496,0.713835,1.712817,-0.165385,0.010489,0.031010,-0.039661,-0.654738,-0.754815,-0.007290,0.032362,-0.001594,16.530809,-20.680584,-25.695435,,,,,,,
1504199263.937945,-0.052795,0.710984,1.713154,-0.201701,0.001199,0.022427,-0.039985,-0.652580,-0.756664,-0.003640,0.038200,0.007564,16.530809,-20.680584,-25.695435,,,,,,,
1504199263.947955,-0.052877,0.708706,1.713171,-0.234809,-0.010237,0.010648,-0.040126,-0.650852,-0.758144,-0.005971,0.037555,0.010936,16.304827,-20.381298,-25.848236,,,,,,,
1504199263.957964,-0.052936,0.706175,1.713057,-0.257201,-0.013242,0.003143,-0.040258,-0.648928,-0.759784,-0.008021,0.032077,0.008746,16.304827,-20.381298,-25.848236,,,,,,,
1504199263.967974,-0.052861,0.703611,1.712885,-0.254941,0.000596,-0.000080,-0.040289,-0.646975,-0.761446,-0.011835,0.017336,0.011904,16.229036,-20.156338,-26.000122,,,,,,,
1504199263.977984,-0.053338,0.701353,1.713157,-0.232369,0.018523,-0.004338,-0.040729,-0.645252,-0.762884,-0.015225,0.011966,0.023199,16.229036,-20.156338,-26.000122,,,,,,,
1504199263.987994,-0.053804,0.699621,1.713505,-0.188441,0.036276,-0.011761,-0.041145,-0.643928,-0.763979,-0.020363,0.011481,0.028811,16.454302,-20.305172,-26.073456,,,,,,,
1504199263.998003,-0.053882,0.698163,1.713687,-0.142329,0.059342,-0.021324,-0.041255,-0.642811,-0.764913,-0.017598,0.022252,0.032201,16.454302,-20.305172,-26.073456,,,,,,,
1504199264.008013,-0.053512,0.696837,1.713657,-0.100586,0.072849,-0.026609,-0.041017,-0.641795,-0.765778,-0.012449,0.029536,0.026246,16.078661,-20.007015,-26.001617,,,,,,,
1504199264.018023,-0.052927,0.695799,1.713524,-0.066474,0.071495,-0.023343,-0.040605,-0.640999,-0.766467,-0.008193,0.025261,0.016589,16.078661,-20.007015,-26.001617,,,,,,,
1504199264.028033,-0.052352,0.695039,1.713392,-0.038822,0.062735,-0.020076,-0.040189,-0.640416,-0.766976,-0.006243,0.018788,0.007653,16.228930,-20.156185,-26.075134,,,,,,,
1504199264.038042,-0.051830,0.694665,1.713330,-0.021763,0.064717,-0.014711,-0.039802,-0.640128,-0.767236,-0.006784,0.007575,0.003183,16.228930,-20.156185,-26.075134,,,,,,,
1504199264.048052,-0.051262,0.694394,1.713301,-0.020698,0.067897,-0.009376,-0.039375,-0.639920,-0.767432,-0.005791,0.002438,0.000068,16.303057,-19.855694,-26.152191,,,,,,,
1504199264.058062,-0.050811,0.693992,1.713425,-0.033554,0.067989,0.001277,-0.039041,-0.639611,-0.767707,-0.007437,-0.002418,-0.007851,16.303057,-19.855694,-26.152191,,,,,,,
1504199264.068072,-0.050141,0.693498,1.713491,-0.047433,0.072356,0.009784,-0.038543,-0.639231,-0.768048,-0.000947,-0.008199,-0.013004,16.227877,-19.781033,-26.152924,,,,,,,
1504199264.078082,-0.049088,0.692860,1.713399,-0.068682,0.084255,0.010792,-0.037754,-0.638740,-0.768496,0.007435,-0.013207,-0.016233,16.227877,-19.781033,-26.152924,,,,,,,
1504199264.088061,-0.047870,0.692013,1.713159,-0.089031,0.072709,0.007572,-0.036844,-0.638089,-0.769081,0.012766,-0.013324,-0.016609,16.302919,-19.706005,-26.003296,,,,,,,
1504199264.098071,-0.046809,0.690930,1.712769,-0.104226,0.036616,0.001202,-0.036061,-0.637254,-0.769810,0.015675,-0.014968,-0.022762,16.302919,-19.706005,-26.003296,,,,,,,
1504199264.108080,-0.046719,0.689823,1.712642,-0.112026,-0.010197,-0.007268,-0.036024,-0.636401,-0.770517,0.014768,-0.012830,-0.026907,16.303850,-20.081005,-26.000488,,,,,,,
1504199264.118090,-0.046992,0.688680,1.712409,-0.114469,-0.052795,-0.013601,-0.036269,-0.635519,-0.771233,0.008803,-0.011667,-0.027351,16.303850,-20.081005,-26.000488,,,,,,,
1504199264.128100,-0.047528,0.687568,1.712152,-0.109308,-0.075214,-0.014620,-0.036715,-0.634660,-0.771919,0.007815,-0.011046,-0.025643,16.453295,-20.079571,-26.375122,,,,,,,
1504199264.138110,-0.047984,0.686356,1.711818,-0.097686,-0.083841,-0.006047,-0.037105,-0.633723,-0.772670,0.006480,-0.010732,-0.024464,16.453295,-20.079571,-26.375122,,,,,,,
1504199264.148119,-0.048768,0.685450,1.711738,-0.087032,-0.081805,0.000372,-0.037738,-0.633021,-0.773214,0.003131,-0.013372,-0.021616,16.152880,-19.781368,-26.153107,,,,,,,
1504199264.158129,-0.049487,0.684691,1.711729,-0.072010,-0.069144,0.003578,-0.038317,-0.632433,-0.773666,0.006121,-0.009687,-0.020874,16.152880,-19.781368,-26.153107,,,,,,,
1504199264.168139,-0.050049,0.684071,1.711742,-0.056926,-0.050089,0.004638,-0.038772,-0.631954,-0.774036,0.011184,-0.009190,-0.022519,16.002733,-19.856594,-26.377930,,,,,,,
1504199264.178149,-0.050128,0.683567,1.711543,-0.034469,-0.042812,0.005730,-0.038849,-0.631563,-0.774351,0.010071,-0.011977,-0.021197,16.002733,-19.856594,-26.377930,,,,,,,
1504199264.188158,-0.050556,0.683339,1.711575,-0.018433,-0.040810,0.002552,-0.039188,-0.631386,-0.774478,0.008487,-0.006935,-0.020306,16.078066,-20.080959,-26.526031,,,,,,,
1504199264.198168,-0.050763,0.682916,1.711471,-0.000233,-0.034563,-0.000630,-0.039361,-0.631058,-0.774737,0.003747,0.000794,-0.020597,16.078066,-20.080959,-26.526031,,,,,,,
1504199264.208178,-0.050897,0.682754,1.711369,0.021188,-0.025147,-0.002745,-0.039471,-0.630932,-0.774833,0.003155,0.005886,-0.011971,15.853060,-19.857723,-26.153290,,,,,,,
1504199264.218188,-0.051118,0.682921,1.711342,0.043573,-0.027463,-0.002702,-0.039637,-0.631062,-0.774719,0.000589,0.004841,-0.007248,15.853060,-19.857723,-26.153290,,,,,,,
1504199264.228198,-0.051586,0.683286,1.711416,0.059498,-0.037186,-0.002657,-0.039987,-0.631345,-0.774470,-0.003195,0.002637,-0.008656,16.077608,-19.856106,-26.452759,,,,,,,
1504199264.238207,-0.051936,0.683752,1.711380,0.071235,-0.039410,-0.006902,-0.040243,-0.631706,-0.774163,0.000052,0.003700,-0.008339,16.077608,-19.856106,-26.452759,,,,,,,
1504199264.248217,-0.052163,0.684392,1.711304,0.074487,-0.030915,-0.003710,-0.040398,-0.632202,-0.773750,0.003273,0.001281,-0.005211,16.002047,-19.631451,-26.454620,,,,,,,
1504199264.258227,-0.052388,0.685204,1.711286,0.077706,-0.026681,-0.000510,-0.040545,-0.632831,-0.773228,0.002459,-0.001920,-0.000652,16.002047,-19.631451,-26.454620,,,,,,,
1504199264.268237,-0.052564,0.685979,1.711219,0.072295,-0.036225,-0.000503,-0.040655,-0.633431,-0.772731,0.005865,-0.002250,-0.001424,16.302355,-19.705257,-26.378296,,,,,,,
1504199264.278246,-0.052704,0.686608,1.711042,0.057248,-0.049950,-0.000507,-0.040742,-0.633918,-0.772327,0.010591,-0.002420,-0.003628,16.302355,-19.705257,-26.378296,,,,,,,
1504199264.288256,-0.052838,0.686915,1.710743,0.029441,-0.061433,-0.005874,-0.040835,-0.634155,-0.772127,0.013690,0.003143,-0.002256,16.002886,-20.006298,-26.526794,,,,,,,
1504199264.298266,-0.053054,0.686785,1.710409,-0.003652,-0.065417,-0.009129,-0.041007,-0.634054,-0.772201,0.012580,0.006826,-0.004823,16.002886,-20.006298,-26.526794,,,,,,,
1504199264.308276,-0.053327,0.686311,1.710087,-0.029195,-0.059872,-0.013453,-0.041234,-0.633688,-0.772489,0.007695,0.012045,-0.001879,16.152834,-19.856075,-26.302582,,,,,,,
1504199264.318285,-0.053674,0.685699,1.709799,-0.044142,-0.060814,-0.013478,-0.041522,-0.633214,-0.772862,0.004535,0.014149,0.003728,16.152834,-19.856075,-26.302582,,,,,,,
1504199264.328265,-0.053903,0.685227,1.709459,-0.035647,-0.063018,-0.009191,-0.041716,-0.632848,-0.773151,0.009718,0.012411,0.008411,16.152269,-19.631069,-26.304260,,,,,,,
1504199264.338274,-0.054216,0.685019,1.709243,-0.019700,-0.062093,0.003642,-0.041965,-0.632687,-0.773269,0.011264,0.008908,0.012008,16.152269,-19.631069,-26.304260,,,,,,,
1504199264.348284,-0.054628,0.685103,1.709282,0.000563,-0.052684,0.020737,-0.042280,-0.632753,-0.773198,0.010023,0.005251,0.014974,16.302050,-19.630108,-26.453888,,,,,,,
1504199264.358294,-0.055090,0.685402,1.709562,0.023019,-0.037962,0.034625,-0.042627,-0.632985,-0.772990,0.008387,0.004551,0.014033,16.302050,-19.630108,-26.453888,,,,,,,
1504199264.368304,-0.055668,0.685916,1.710147,0.049767,-0.020081,0.048516,-0.043056,-0.633382,-0.772641,0.002910,0.004415,0.012188,16.002657,-19.781750,-26.303497,,,,,,,
1504199264.378313,-0.056228,0.686589,1.710877,0.068094,0.002147,0.046374,-0.043464,-0.633903,-0.772191,-0.002526,0.009193,0.014546,16.002657,-19.781750,-26.303497,,,,,,,
1504199264.388323,-0.056507,0.687242,1.711497,0.075840,0.027672,0.031400,-0.043656,-0.634407,-0.771765,-0.004638,0.018761,0.017935,15.927584,-19.707241,-26.229248,,,,,,,
1504199264.398333,-0.056455,0.687805,1.711906,0.071860,0.051166,0.011072,-0.043596,-0.634842,-0.771411,-0.007673,0.023102,0.016833,15.927584,-19.707241,-26.229248,,,,,,,
1504199264.408343,-0.056252,0.688359,1.712241,0.059225,0.064814,0.004647,-0.043420,-0.635271,-0.771068,-0.011527,0.017092,0.015773,16.078630,-20.081707,-26.151031,,,,,,,
1504199264.418353,-0.056081,0.688920,1.712637,0.043206,0.066002,0.009956,-0.043268,-0.635704,-0.770720,-0.013693,0.005241,0.013594,16.078630,-20.081707,-26.151031,,,,,,,
1504199264.428362,-0.055891,0.689359,1.713093,0.020759,0.067239,0.020591,-0.043106,-0.636043,-0.770449,-0.011322,-0.002980,0.010882,16.228060,-19.856030,-26.152374,,,,,,,
1504199264.438372,-0.055514,0.689639,1.713548,-0.000553,0.076994,0.031211,-0.042806,-0.636259,-0.770287,-0.004497,-0.007952,0.009133,16.228060,-19.856030,-26.152374,,,,,,,
1504199264.448382,-0.054986,0.689684,1.714029,-0.021843,0.086754,0.037561,-0.042397,-0.636293,-0.770281,-0.001044,-0.008940,0.007037,16.077944,-19.856564,-26.227753,,,,,,,
1504199264.458392,-0.054223,0.689368,1.714390,-0.044221,0.090137,0.037516,-0.041821,-0.636049,-0.770514,0.005932,-0.003843,0.003165,16.077944,-19.856564,-26.227753,,,,,,,
1504199264.468401,-0.053449,0.688859,1.714682,-0.051791,0.077414,0.037524,-0.041241,-0.635657,-0.770869,0.009015,-0.003991,-0.002355,16.078096,-19.782009,-26.003296,,,,,,,
1504199264.478411,-0.052814,0.688392,1.714942,-0.050866,0.058230,0.035423,-0.040768,-0.635296,-0.771192,0.009762,-0.007465,-0.003863,16.078096,-19.782009,-26.003296,,,,,,,
1504199264.488421,-0.052337,0.687987,1.715174,-0.043515,0.042191,0.033328,-0.040413,-0.634983,-0.771468,0.010262,-0.008129,-0.004426,15.852831,-19.857418,-26.303314,,,,,,,
1504199264.498431,-0.052006,0.687662,1.715398,-0.035094,0.027207,0.032300,-0.040169,-0.634732,-0.771688,0.010002,-0.006335,-0.003962,15.852831,-19.857418,-26.303314,,,,,,,
1504199264.508440,-0.051787,0.687246,1.715670,-0.032975,0.026124,0.033372,-0.040013,-0.634411,-0.771960,0.008031,-0.002140,-0.007840,15.928209,-20.007092,-26.302002,,,,,,,
1504199264.518450,-0.051700,0.686739,1.716062,-0.031883,0.031440,0.036566,-0.039962,-0.634019,-0.772284,0.002243,0.001344,-0.010766,15.928209,-20.007092,-26.302002,,,,,,,
1504199264.528460,-0.051605,0.686211,1.716540,-0.029668,0.043140,0.038685,-0.039907,-0.633610,-0.772623,-0.001368,0.003743,-0.010718,16.078630,-20.081707,-26.151031,,,,,,,
1504199264.538470,-0.051473,0.685717,1.717076,-0.023216,0.051608,0.041883,-0.039821,-0.633228,-0.772940,-0.001790,0.004597,-0.011530,16.078630,-20.081707,-26.151031,,,,,,,
1504199264.548479,-0.051328,0.685357,1.717665,-0.002930,0.055698,0.045114,-0.039720,-0.632949,-0.773174,-0.002394,0.003768,-0.015370,15.852831,-19.857418,-26.303314,,,,,,,
1504199264.558489,-0.051129,0.685317,1.718300,0.029153,0.066088,0.046219,-0.039567,-0.632919,-0.773207,-0.002211,0.004958,-0.011919,15.852831,-19.857418,-26.303314,,,,,,,
1504199264.568468,-0.050817,0.685649,1.718959,0.062349,0.080733,0.045184,-0.039316,-0.633176,-0.773009,-0.002448,0.008267,-0.004884,16.153551,-20.006527,-26.076447,,,,,,,
1504199264.578478,-0.050454,0.686234,1.719649,0.088103,0.095444,0.038799,-0.039017,-0.633628,-0.772653,-0.006989,0.012840,-0.001059,16.153551,-20.006527,-26.076447,,,,,,,
1504199264.588488,-0.049877,0.687027,1.720302,0.110641,0.112306,0.038809,-0.038546,-0.634241,-0.772174,-0.006132,0.012308,-0.004514,16.378664,-20.005657,-26.000885,,,,,,,
1504199264.598498,-0.049107,0.688052,1.721011,0.128932,0.135590,0.045205,-0.037919,-0.635034,-0.771553,-0.005111,0.009347,-0.005470,16.378664,-20.005657,-26.000885,,,,,,,
1504199264.608508,-0.048211,0.689289,1.721807,0.144995,0.147171,0.051617,-0.037190,-0.635989,-0.770802,-0.004314,0.007006,-0.004253,16.304644,-20.306301,-25.848816,,,,,,,
1504199264.618517,-0.047246,0.690614,1.722639,0.156761,0.152399,0.053764,-0.036407,-0.637010,-0.769995,-0.003175,0.007570,-0.007059,16.304644,-20.306301,-25.848816,,,,,,,
1504199264.628527,-0.046267,0.692037,1.723514,0.168543,0.159758,0.055907,-0.035611,-0.638107,-0.769124,-0.003909,0.007690,-0.009013,16.229753,-20.306789,-25.773987,,,,,,,
1504199264.638537,-0.045417,0.693556,1.724476,0.178150,0.158614,0.052724,-0.034913,-0.639276,-0.768184,-0.009826,0.009302,-0.006901,16.229753,-20.306789,-25.773987,,,,,,,
1504199264.648547,-0.044674,0.695126,1.725386,0.187652,0.143619,0.048499,-0.034297,-0.640482,-0.767207,-0.010411,0.008570,-0.012014,16.079836,-20.382305,-25.848816,,,,,,,
1504199264.658556,-0.043554,0.697154,1.726154,0.236964,0.170921,0.045335,-0.033381,-0.642038,-0.765946,-0.003988,0.005228,-0.008728,16.079836,-20.382305,-25.848816,,,,,,,
1504199264.668566,-0.042212,0.700385,1.726877,0.241369,0.185807,0.043181,-0.032265,-0.644512,-0.763913,0.000832,-0.003895,0.060345,16.305056,-20.157345,-25.324921,,,,,,,
1504199264.678576,-0.041062,0.703126,1.727393,0.207832,0.120030,0.031496,-0.031315,-0.646605,-0.762182,0.004795,-0.013414,0.028783,16.305056,-20.157345,-25.324921,,,,,,,
1504199264.688586,-0.040212,0.704378,1.727239,0.131337,0.010936,0.004868,-0.030634,-0.647560,-0.761398,0.023813,0.004875,-0.018280,16.305880,-20.532192,-25.397095,,,,,,,
1504199264.698595,-0.040752,0.705081,1.727172,0.052829,-0.076846,-0.011124,-0.031027,-0.648096,-0.760926,0.024221,0.004511,-0.047026,16.305880,-20.532192,-25.397095,,,,,,,
1504199264.708605,-0.041825,0.705151,1.727078,-0.005163,-0.120064,-0.004744,-0.031841,-0.648149,-0.760848,0.016781,-0.006133,-0.038942,16.531069,-20.606182,-25.395966,,,,,,,
1504199264.718615,-0.042994,0.704842,1.727278,-0.036021,-0.091070,0.025039,-0.032739,-0.647913,-0.761010,0.010400,-0.023000,-0.020484,16.531069,-20.606182,-25.395966,,,,,,,
1504199264.728625,-0.043664,0.704507,1.727917,-0.027994,-0.000594,0.057983,-0.033259,-0.647658,-0.761205,0.010920,-0.023256,-0.020289,16.456453,-20.756527,-25.395020,,,,,,,
1504199264.738635,-0.043407,0.705034,1.728606,-0.017933,0.063251,0.069627,-0.033048,-0.648060,-0.760872,0.012036,-0.039883,0.012413,16.456453,-20.756527,-25.395020,,,,,,,
1504199264.748644,-0.043496,0.704708,1.729286,-0.037397,0.015485,0.045127,-0.033125,-0.647811,-0.761081,0.017408,-0.029374,0.052798,16.305773,-20.532055,-25.472107,,,,,,,
1504199264.758654,-0.044130,0.703967,1.729235,-0.089192,-0.095912,-0.016675,-0.033629,-0.647247,-0.761538,0.004576,-0.004517,0.034579,16.305773,-20.532055,-25.472107,,,,,,,
1504199264.768664,-0.045120,0.702697,1.728297,-0.142906,-0.181717,-0.080661,-0.034419,-0.646278,-0.762326,-0.010472,0.029670,-0.011402,16.155886,-20.532864,-25.397461,,,,,,,
1504199264.778636,-0.046606,0.699688,1.727029,-0.190037,-0.220733,-0.108424,-0.035643,-0.643979,-0.764213,-0.011690,0.053708,-0.026071,16.155886,-20.532864,-25.397461,,,,,,,
1504199264.788645,-0.047957,0.697681,1.725556,-0.210424,-0.229099,-0.098838,-0.036737,-0.642442,-0.765453,-0.016013,0.044084,-0.016499,16.230654,-20.532238,-25.547302,,,,,,,
1504199264.798655,-0.049380,0.695632,1.724400,-0.208283,-0.211031,-0.071114,-0.037891,-0.640871,-0.766713,-0.023617,0.017183,-0.004145,16.230654,-20.532238,-25.547302,,,,,,,
1504199264.808665,-0.050785,0.693723,1.723668,-0.187920,-0.180328,-0.040178,-0.039030,-0.639404,-0.767879,-0.023485,-0.004334,0.009060,16.304308,-20.081600,-25.700500,,,,,,,
1504199264.818644,-0.052555,0.692511,1.723549,-0.156795,-0.146507,-0.022036,-0.040430,-0.638472,-0.768582,-0.016042,-0.016160,0.014295,16.304308,-20.081600,-25.700500,,,,,,,
1504199264.828654,-0.053567,0.691248,1.723259,-0.118130,-0.110602,-0.015628,-0.041251,-0.637499,-0.769346,-0.015390,-0.017057,0.016004,16.079378,-20.157467,-25.775482,,,,,,,
1504199264.838664,-0.054120,0.690395,1.722947,-0.075045,-0.062999,-0.020974,-0.041706,-0.636842,-0.769866,-0.015224,-0.002532,0.014922,16.079378,-20.157467,-25.775482,,,,,,,
1504199264.848673,-0.054166,0.690025,1.722593,-0.025551,-0.014384,-0.026311,-0.041754,-0.636556,-0.770099,-0.020410,0.005865,0.015186,16.080019,-20.457317,-25.848236,,,,,,,
1504199264.858683,-0.054467,0.690253,1.722697,0.020672,0.027855,-0.027369,-0.041978,-0.636732,-0.769942,-0.023818,0.010893,0.023161,16.080019,-20.457317,-25.848236,,,,,,,
1504199264.868693,-0.053876,0.690697,1.722421,0.050654,0.044652,-0.022010,-0.041507,-0.637075,-0.769684,-0.021832,0.011190,0.027191,15.853746,-20.082867,-26.076630,,,,,,,
1504199264.878703,-0.053295,0.691318,1.722269,0.063434,0.047733,-0.012386,-0.041040,-0.637553,-0.769313,-0.014396,0.006343,0.021800,15.853746,-20.082867,-26.076630,,,,,,,
1504199264.888712,-0.052833,0.691930,1.722185,0.061176,0.034960,-0.008098,-0.040663,-0.638024,-0.768942,-0.006776,0.003823,0.008932,16.379305,-20.305508,-26.073639,,,,,,,
1504199264.898722,-0.052629,0.692376,1.722133,0.045022,0.014849,-0.010225,-0.040492,-0.638368,-0.768666,-0.001974,0.003526,-0.000332,16.379305,-20.305508,-26.073639,,,,,,,
1504199264.908732,-0.052511,0.692673,1.721958,0.022496,-0.004140,-0.016635,-0.040391,-0.638597,-0.768481,0.004640,0.006181,-0.006376,16.304110,-20.230846,-26.074371,,,,,,,
1504199264.918742,-0.052516,0.692758,1.721719,0.002114,-0.019953,-0.019845,-0.040392,-0.638662,-0.768427,0.005755,0.008443,-0.011282,16.304110,-20.230846,-26.074371,,,,,,,
1504199264.928752,-0.052608,0.692667,1.721426,-0.013950,-0.029407,-0.023058,-0.040466,-0.638592,-0.768481,0.004379,0.009640,-0.010419,16.303362,-19.930843,-26.076630,,,,,,,
1504199264.938761,-0.052565,0.692190,1.721015,-0.027825,-0.030357,-0.024148,-0.040448,-0.638225,-0.768787,0.003919,0.007976,-0.005871,16.303362,-19.930843,-26.076630,,,,,,,
1504199264.948771,-0.052655,0.691830,1.720648,-0.040651,-0.034511,-0.026298,-0.040530,-0.637947,-0.769013,0.003741,0.006737,-0.002853,16.229006,-20.231045,-26.149536,,,,,,,
1504199264.958781,-0.052667,0.691289,1.720194,-0.047090,-0.039784,-0.027368,-0.040557,-0.637531,-0.769357,0.003951,0.004657,-0.000281,16.229006,-20.231045,-26.149536,,,,,,,
1504199264.968791,-0.052764,0.690705,1.719725,-0.055697,-0.049302,-0.028434,-0.040652,-0.637081,-0.769724,0.003802,0.002361,-0.000844,16.304308,-20.305843,-26.073822,,,,,,,
1504199264.978800,-0.052924,0.690056,1.719190,-0.056815,-0.058876,-0.033757,-0.040796,-0.636580,-0.770130,0.004297,0.003463,-0.001522,16.304308,-20.305843,-26.073822,,,,,,,
1504199264.988810,-0.053072,0.689395,1.718540,-0.055808,-0.069534,-0.039074,-0.040933,-0.636071,-0.770544,0.006967,0.005791,-0.001016,16.079683,-20.456860,-26.073242,,,,,,,
1504199264.998820,-0.053101,0.688809,1.717741,-0.050483,-0.073831,-0.044396,-0.040975,-0.635618,-0.770916,0.011891,0.004026,-0.001194,16.079683,-20.456860,-26.073242,,,,,,,
1504199265.008830,-0.053024,0.688393,1.716827,-0.047194,-0.069582,-0.055073,-0.040929,-0.635297,-0.771183,0.012075,-0.001834,0.000568,16.079653,-20.307308,-25.849365,,,,,,,
1504199265.018839,-0.052982,0.688094,1.715854,-0.048157,-0.065296,-0.068960,-0.040907,-0.635066,-0.771374,0.004912,-0.003743,0.005978,16.079653,-20.307308,-25.849365,,,,,,,
1504199265.028849,-0.052799,0.687716,1.714740,-0.054421,-0.055641,-0.080730,-0.040779,-0.634774,-0.771621,0.004203,0.000588,0.009078,15.853182,-19.857876,-26.078308,,,,,,,
1504199265.038859,-0.052586,0.687249,1.713626,-0.060682,-0.042794,-0.088235,-0.040630,-0.634413,-0.771926,-0.002552,-0.000398,0.006163,15.853182,-19.857876,-26.078308,,,,,,,
1504199265.048869,-0.052308,0.686734,1.712490,-0.072299,-0.032037,-0.094677,-0.040433,-0.634015,-0.772263,-0.005939,-0.001514,0.008393,15.852922,-19.932278,-26.377716,,,,,,,
1504199265.058848,-0.051848,0.686018,1.711214,-0.085040,-0.027665,-0.100044,-0.040100,-0.633461,-0.772735,-0.003143,0.004890,0.011047,15.852922,-19.932278,-26.377716,,,,,,,
1504199265.068858,-0.051191,0.685108,1.709808,-0.087142,-0.025513,-0.103253,-0.039622,-0.632756,-0.773336,0.001582,0.010823,0.007284,16.228960,-20.305737,-26.299011,,,,,,,
1504199265.078868,-0.050428,0.684239,1.708322,-0.087082,-0.021245,-0.108598,-0.039060,-0.632083,-0.773915,0.002546,0.006793,0.005132,16.228960,-20.305737,-26.299011,,,,,,,
1504199265.088877,-0.049443,0.683632,1.706644,-0.083809,-0.019128,-0.119271,-0.038317,-0.631613,-0.774337,0.004198,0.000799,0.009032,16.077837,-19.856411,-26.302765,,,,,,,
1504199265.098887,-0.048642,0.682804,1.704919,-0.091341,-0.035036,-0.132065,-0.037722,-0.630971,-0.774889,0.003603,0.000157,0.009584,16.077837,-19.856411,-26.302765,,,,,,,
1504199265.108897,-0.047651,0.681841,1.702881,-0.111825,-0.061504,-0.132056,-0.036983,-0.630224,-0.775532,0.015559,0.004415,0.009068,16.228395,-20.080730,-26.300690,,,,,,,
1504199265.118907,-0.046775,0.680538,1.700818,-0.142919,-0.077233,-0.126748,-0.036342,-0.629212,-0.776384,0.020396,0.001846,0.001375,16.228395,-20.080730,-26.300690,,,,,,,
1504199265.128916,-0.045935,0.678923,1.698878,-0.171644,-0.061018,-0.117223,-0.035736,-0.627955,-0.777429,0.017899,-0.001790,-0.001609,16.302004,-19.704800,-26.603302,,,,,,,
1504199265.138926,-0.044782,0.677201,1.697126,-0.185155,-0.005510,-0.100268,-0.034888,-0.626614,-0.778548,0.017326,-0.002139,0.004561,16.302004,-19.704800,-26.603302,,,,,,,
1504199265.148936,-0.043350,0.675690,1.695736,-0.183680,0.055204,-0.084363,-0.033814,-0.625436,-0.779543,0.009904,-0.004615,0.019472,16.151217,-19.480175,-26.755371,,,,,,,
1504199265.158946,-0.041947,0.674501,1.694500,-0.181317,0.074380,-0.098269,-0.032751,-0.624507,-0.780332,-0.001398,-0.004170,0.043958,16.151217,-19.480175,-26.755371,,,,,,,
1504199265.168955,-0.040390,0.673414,1.692927,-0.153273,0.080593,-0.148397,-0.031564,-0.623658,-0.781060,-0.013709,0.001481,0.041726,16.301226,-19.479504,-26.755005,,,,,,,
1504199265.178965,-0.038515,0.672365,1.690723,-0.102897,0.075968,-0.201669,-0.030125,-0.622838,-0.781770,-0.017010,0.023473,0.035463,16.301226,-19.479504,-26.755005,,,,,,,
1504199265.188975,-0.035717,0.671642,1.687670,-0.042820,0.091501,-0.243222,-0.027953,-0.622272,-0.782301,0.001784,0.043644,0.037932,16.525652,-19.253490,-26.756134,,,,,,,
1504199265.198985,-0.032411,0.671597,1.684229,0.005598,0.123102,-0.274148,-0.025368,-0.622237,-0.782418,0.000374,0.037413,0.040719,16.525652,-19.253490,-26.756134,,,,,,,
1504199265.208994,-0.028618,0.671992,1.680607,0.033642,0.156978,-0.280564,-0.022393,-0.622546,-0.782262,0.001626,0.036197,0.047567,16.750307,-19.027782,-26.607269,,,,,,,
1504199265.219004,-0.024672,0.672488,1.677143,0.043409,0.185655,-0.267789,-0.019299,-0.622934,-0.782036,0.003552,0.035853,0.039498,16.750307,-19.027782,-26.607269,,,,,,,
1504199265.229014,-0.020617,0.672976,1.673907,0.042445,0.209089,-0.250754,-0.016120,-0.623316,-0.781804,-0.009438,0.024927,0.027700,16.975756,-19.251614,-26.680054,,,,,,,
1504199265.239024,-0.016473,0.673451,1.670831,0.042509,0.225059,-0.237973,-0.012876,-0.623687,-0.781568,-0.012469,0.014953,0.023267,16.975756,-19.251614,-26.680054,,,,,,,
1504199265.249034,-0.012494,0.673993,1.667920,0.030761,0.224088,-0.236923,-0.009762,-0.624111,-0.781275,-0.009297,0.006527,0.021433,16.825686,-19.177441,-26.605957,,,,,,,
1504199265.259043,-0.008426,0.674348,1.664901,0.010569,0.228525,-0.245505,-0.006581,-0.624388,-0.781087,-0.008632,0.004316,0.019093,16.825686,-19.177441,-26.605957,,,,,,,
1504199265.269053,-0.003991,0.674385,1.661523,0.001143,0.233958,-0.272216,-0.003118,-0.624417,-0.781085,-0.010081,0.009488,0.004153,17.201021,-19.176205,-26.380035,,,,,,,
1504199265.279063,0.000814,0.674339,1.657501,-0.007167,0.225563,-0.330922,0.000636,-0.624381,-0.781119,-0.017741,0.011390,0.001746,17.201021,-19.176205,-26.380035,,,,,,,
1504199265.289073,0.006199,0.674289,1.652510,0.000735,0.229843,-0.410971,0.004842,-0.624342,-0.781136,-0.013204,0.020323,-0.000541,17.350451,-18.950527,-26.381348,,,,,,,
1504199265.299082,0.012542,0.673929,1.646489,0.042177,0.287136,-0.500661,0.009800,-0.624061,-0.781314,-0.012180,0.030448,-0.010831,17.350451,-18.950527,-26.381348,,,,,,,
1504199265.309062,0.020638,0.674683,1.639230,0.098818,0.378401,-0.587184,0.016115,-0.624650,-0.780739,-0.023196,0.038865,0.007485,17.649508,-18.574169,-26.383423,,,,,,,
1504199265.319071,0.030241,0.675920,1.630877,0.155303,0.454741,-0.666208,0.023589,-0.625615,-0.779775,-0.045561,0.043294,0.042364,17.649508,-18.574169,-26.383423,,,,,,,
1504199265.329081,0.040829,0.677602,1.621804,0.203855,0.497007,-0.706760,0.031800,-0.626927,-0.778429,-0.053803,0.045307,0.044634,18.249804,-18.422375,-25.933075,,,,,,,
1504199265.339091,0.051587,0.679605,1.612538,0.244379,0.491351,-0.712016,0.040108,-0.628486,-0.776786,-0.060875,0.040030,0.030891,18.249804,-18.422375,-25.933075,,,,,,,
1504199265.349101,0.062141,0.681895,1.603173,0.278248,0.455909,-0.714030,0.048214,-0.630265,-0.774881,-0.066753,0.032212,0.008906,18.775484,-18.645168,-25.855103,,,,,,,
1504199265.359110,0.072519,0.684371,1.593510,0.303677,0.418429,-0.738470,0.056140,-0.632186,-0.772780,-0.065173,0.032180,-0.009599,18.775484,-18.645168,-25.855103,,,,,,,
1504199265.369120,0.082986,0.686942,1.583197,0.321791,0.384233,-0.788546,0.064090,-0.634176,-0.770528,-0.055392,0.039770,-0.018107,19.375856,-18.568218,-25.479156,,,,,,,
1504199265.379130,0.093504,0.689449,1.572193,0.334545,0.346883,-0.838626,0.072042,-0.636112,-0.768226,-0.039434,0.049869,-0.022988,19.375856,-18.568218,-25.479156,,,,,,,
1504199265.389140,0.104100,0.691851,1.560525,0.324832,0.306515,-0.881268,0.080019,-0.637964,-0.765898,-0.031145,0.055734,-0.024874,19.825212,-18.266338,-25.405273,,,,,,,
1504199265.399149,0.114800,0.694008,1.548120,0.315219,0.267230,-0.942057,0.088052,-0.639623,-0.763629,-0.034783,0.056936,-0.027051,19.825212,-18.266338,-25.405273,,,,,,,
1504199265.409159,0.125963,0.695918,1.534572,0.316582,0.243632,-1.034860,0.096417,-0.641090,-0.761385,-0.039837,0.059517,-0.035978,20.125093,-18.040585,-25.106232,,,,,,,
1504199265.419169,0.138054,0.697651,1.519387,0.339600,0.237187,-1.168234,0.105462,-0.642419,-0.759062,-0.044809,0.068963,-0.040758,20.125093,-18.040585,-25.106232,,,,,,,
1504199265.429179,0.151521,0.699432,1.502062,0.378767,0.232768,-1.327201,0.115502,-0.643783,-0.756441,-0.049294,0.081954,-0.032850,20.949785,-17.737484,-24.806458,,,,,,,
1504199265.439189,0.166605,0.701266,1.482442,0.433033,0.245279,-1.491509,0.126702,-0.645185,-0.753447,-0.049325,0.095747,-0.023546,20.949785,-17.737484,-24.806458,,,,,,,
1504199265.449198,0.182985,0.703132,1.460756,0.484824,0.231144,-1.630157,0.138807,-0.646610,-0.750085,-0.045820,0.106129,-0.011405,21.249147,-17.436275,-24.732971,,,,,,,
1504199265.459208,0.200024,0.705056,1.437330,0.545717,0.171085,-1.742023,0.151319,-0.648077,-0.746391,-0.037580,0.114019,-0.007439,21.249147,-17.436275,-24.732971,,,,,,,
1504199265.469218,0.217202,0.706993,1.412578,0.589197,0.090885,-1.817591,0.163847,-0.649550,-0.742454,-0.033186,0.112395,-0.016518,21.923769,-17.058987,-24.359131,,,,,,,
1504199265.479228,0.234242,0.708861,1.386957,0.625162,0.023504,-1.863308,0.176193,-0.650969,-0.738373,-0.011108,0.105361,-0.019882,21.923769,-17.058987,-24.359131,,,,,,,
1504199265.489237,0.251087,0.710717,1.360894,0.665354,-0.025836,-1.871691,0.188304,-0.652378,-0.734129,0.003087,0.091907,-0.021609,22.671450,-16.006069,-24.140137,,,,,,,
1504199265.499247,0.267556,0.712760,1.334754,0.717192,-0.071035,-1.855510,0.200016,-0.653925,-0.729641,0.024456,0.069238,-0.002186,22.671450,-16.006069,-24.140137,,,,,,,
1504199265.509257,0.284070,0.714812,1.308410,0.746074,-0.067001,-1.864007,0.211661,-0.655475,-0.724949,0.010812,0.043842,0.025136,23.494600,-15.177655,-23.994293,,,,,,,
1504199265.519267,0.301902,0.716492,1.281098,0.756789,0.018248,-1.950598,0.224226,-0.656743,-0.720008,-0.031751,0.029805,0.050361,23.494600,-15.177655,-23.994293,,,,,,,
1504199265.529276,0.322233,0.717272,1.251907,0.745822,0.147444,-2.112023,0.238655,-0.657331,-0.714815,-0.057624,0.053144,0.072145,24.169252,-14.725659,-23.471008,,,,,,,
1504199265.539286,0.344849,0.716875,1.220848,0.721628,0.236234,-2.253118,0.254847,-0.657032,-0.709480,-0.052943,0.097798,0.099250,24.169252,-14.725659,-23.471008,,,,,,,
1504199265.549265,0.368037,0.715492,1.188989,0.705723,0.214046,-2.308612,0.271555,-0.655989,-0.704228,-0.009378,0.112532,0.104405,24.318209,-14.125592,-23.175110,,,,,,,
1504199265.559275,0.390217,0.713522,1.157098,0.711157,0.095715,-2.304124,0.287598,-0.654500,-0.699226,-0.000717,0.094335,0.074912,24.318209,-14.125592,-23.175110,,,,,,,
1504199265.569285,0.410454,0.711333,1.125834,0.723483,-0.060027,-2.244053,0.302259,-0.652844,-0.694575,0.001681,0.069546,0.048625,25.366762,-13.371457,-22.878174,,,,,,,
1504199265.579295,0.428328,0.709177,1.095690,0.736701,-0.215812,-2.148757,0.315209,-0.651209,-0.690340,0.029289,0.054926,0.038973,25.366762,-13.371457,-22.878174,,,,,,,
1504199265.589305,0.443925,0.707236,1.066855,0.751102,-0.347115,-2.037491,0.326479,-0.649735,-0.686480,0.037901,0.033982,0.024646,25.663820,-12.244962,-22.960876,,,,,,,
1504199265.599314,0.457493,0.705318,1.039399,0.726351,-0.445049,-1.938092,0.336313,-0.648276,-0.683105,0.028067,0.007178,0.033340,25.663820,-12.244962,-22.960876,,,,,,,
1504199265.609324,0.469603,0.702936,1.013167,0.665841,-0.506412,-1.883652,0.345259,-0.646460,-0.680357,0.003496,-0.011209,0.048277,26.112886,-11.867932,-22.962585,,,,,,,
1504199265.619334,0.480253,0.699744,0.987412,0.598806,-0.628385,-1.901698,0.353436,-0.644022,-0.678468,-0.010678,-0.006689,0.067628,26.112886,-11.867932,-22.962585,,,,,,,
1504199265.629344,0.488685,0.694845,0.962628,0.357439,-0.790502,-1.899696,0.360621,-0.640266,-0.678241,0.004262,0.015175,0.094303,26.185701,-11.042447,-23.043579,,,,,,,
1504199265.639353,0.493463,0.686009,0.941739,-0.133450,-0.879260,-1.808594,0.366523,-0.633454,-0.681467,0.030450,0.015183,0.120706,26.185701,-11.042447,-23.043579,,,,,,,
1504199265.649363,0.493737,0.674435,0.925200,-0.502744,-1.047972,-1.624275,0.370160,-0.624456,-0.687776,0.045184,0.006231,0.161821,26.182268,-9.991391,-23.576447,,,,,,,
1504199265.659373,0.491228,0.663352,0.913369,-0.406632,-0.906413,-1.200600,0.371675,-0.615761,-0.694763,0.043974,-0.052848,0.197067,26.182268,-9.991391,-23.576447,,,,,,,
1504199265.669383,0.487190,0.658860,0.903429,0.018593,-0.980667,-0.794119,0.370158,-0.612216,-0.698695,0.051671,-0.044507,0.215510,26.105165,-9.465680,-24.105621,,,,,,,
1504199265.679392,0.483095,0.654339,0.900562,-0.417184,-0.453334,-0.283451,0.368576,-0.608635,-0.702649,0.084900,0.137352,0.088758,26.105165,-9.465680,-24.105621,,,,,,,
1504199265.689402,0.479332,0.650186,0.902722,-0.379128,-0.188606,-0.002058,0.367091,-0.605335,-0.706267,0.095006,-0.224743,0.052291,25.653734,-9.166806,-24.558960,,,,,,,
1504199265.699412,0.476568,0.649704,0.903326,0.009694,-0.254696,0.014744,0.365271,-0.604951,-0.707539,0.140710,-0.353454,0.175755,25.653734,-9.166806,-24.558960,,,,,,,
1504199265.709422,0.475873,0.650462,0.902048,0.139461,-0.102211,-0.088838,0.364570,-0.605554,-0.707385,0.118112,-0.121665,0.167636,25.653170,-9.166059,-24.933960,,,,,,,
1504199265.719431,0.477417,0.651503,0.898860,0.235578,-0.028292,-0.203014,0.365371,-0.606382,-0.706261,0.034668,0.064115,0.137291,25.653170,-9.166059,-24.933960,,,,,,,
1504199265.729441,0.479881,0.653382,0.894172,0.372237,-0.047482,-0.251844,0.366584,-0.607875,-0.704346,-0.069267,0.185924,0.134446,25.653124,-9.240766,-25.083405,,,,,,,
1504199265.739451,0.482314,0.656125,0.888678,0.462499,-0.106823,-0.261190,0.367521,-0.610051,-0.701973,-0.124952,0.203420,0.049247,25.653124,-9.240766,-25.083405,,,,,,,
1504199265.749461,0.484468,0.659226,0.882117,0.535628,-0.219228,-0.343055,0.368150,-0.612505,-0.699502,-0.068773,0.220263,-0.008185,25.653246,-9.240903,-25.008423,,,,,,,
1504199265.759471,0.485767,0.662215,0.873284,0.601640,-0.474277,-0.510073,0.368202,-0.614865,-0.697401,-0.014747,0.227551,-0.027437,25.653246,-9.240903,-25.008423,,,,,,,
1504199265.769480,0.484173,0.664798,0.863172,0.593318,-0.908871,-0.607522,0.366349,-0.616900,-0.696579,0.018233,0.186465,-0.027023,25.428926,-9.467069,-24.932281,,,,,,,
1504199265.779498,0.479497,0.666928,0.850921,0.651777,-1.336437,-0.820147,0.362481,-0.618575,-0.697117,0.015174,0.126266,-0.036388,25.428926,-9.467069,-24.932281,,,,,,,
1504199265.789508,0.470656,0.668375,0.836903,0.623419,-1.881678,-0.928110,0.355897,-0.619711,-0.699496,0.061797,0.112005,-0.027982,25.203127,-9.467038,-25.457825,,,,,,,
1504199265.799487,0.457453,0.669531,0.822731,0.592493,-2.298043,-0.956249,0.346315,-0.620618,-0.703490,0.147246,-0.069598,0.015106,25.203127,-9.467038,-25.457825,,,,,,,
1504199265.809497,0.441866,0.670285,0.807542,0.584699,-2.547204,-1.076439,0.335108,-0.621210,-0.708379,0.099341,-0.247092,0.051626,24.150133,-8.944516,-26.589386,,,,,,,
1504199265.819507,0.426501,0.670508,0.789870,0.611698,-2.649486,-1.305704,0.324127,-0.621384,-0.713318,0.102829,-0.329879,0.119218,24.150133,-8.944516,-26.589386,,,,,,,
1504199265.829516,0.412926,0.670104,0.769161,0.622751,-2.626934,-1.560833,0.314515,-0.621067,-0.717883,0.104308,-0.356396,0.199679,22.948183,-8.797818,-27.643524,,,,,,,
1504199265.839526,0.402001,0.668911,0.745774,0.613056,-2.509408,-1.782010,0.306943,-0.620132,-0.721957,0.097903,-0.353150,0.258060,22.948183,-8.797818,-27.643524,,,,,,,
1504199265.849536,0.393936,0.667144,0.720466,0.606733,-2.323790,-1.928582,0.301531,-0.618745,-0.725420,0.067549,-0.336684,0.259508,22.270998,-8.424207,-28.472992,,,,,,,
1504199265.859546,0.388541,0.665577,0.694212,0.659901,-2.104672,-1.969438,0.297979,-0.617513,-0.727933,0.005213,-0.338450,0.243619,22.270998,-8.424207,-28.472992,,,,,,,
1504199265.869555,0.385583,0.665349,0.667832,0.800218,-1.864000,-1.907709,0.295878,-0.617334,-0.728941,-0.056925,-0.346320,0.231428,21.067781,-7.677793,-29.381622,,,,,,,
1504199265.879565,0.384814,0.666967,0.641742,0.957423,-1.627762,-1.816057,0.294942,-0.618605,-0.728242,-0.109990,-0.375764,0.230683,21.067781,-7.677793,-29.381622,,,,,,,
1504199265.889575,0.386189,0.670167,0.615805,1.091068,-1.419007,-1.751082,0.295196,-0.621117,-0.725998,-0.145568,-0.370857,0.216141,20.391878,-7.679639,-29.983276,,,,,,,
1504199265.899585,0.389329,0.674369,0.589971,1.164672,-1.253436,-1.696809,0.296481,-0.624404,-0.722647,-0.163622,-0.310120,0.190130,20.391878,-7.679639,-29.983276,,,,,,,
1504199265.909595,0.393623,0.678872,0.564490,1.171761,-1.139522,-1.652167,0.298500,-0.627915,-0.718763,-0.167915,-0.238692,0.150633,19.716875,-7.682675,-29.984924,,,,,,,
1504199265.919604,0.398419,0.683233,0.539543,1.136820,-1.077477,-1.606438,0.300878,-0.631303,-0.714793,-0.151220,-0.174742,0.108363,19.716875,-7.682675,-29.984924,,,,,,,
1504199265.929614,0.403122,0.687111,0.515363,1.069532,-1.057789,-1.560691,0.303274,-0.634306,-0.711112,-0.133764,-0.138063,0.075721,19.491213,-7.682782,-30.435486,,,,,,,
1504199265.939624,0.407154,0.690334,0.491866,0.990076,-1.104049,-1.534062,0.305328,-0.636795,-0.708002,-0.116561,-0.113465,0.054514,19.491213,-7.682782,-30.435486,,,,,,,
1504199265.949634,0.410195,0.692790,0.468778,0.914685,-1.192937,-1.535104,0.306854,-0.638686,-0.705634,-0.095947,-0.081284,0.039665,19.415529,-7.682218,-30.885712,,,,,,,
1504199265.959643,0.412132,0.694475,0.445706,0.845614,-1.310618,-1.565971,0.307789,-0.639982,-0.704052,-0.065968,-0.042971,0.031475,19.415529,-7.682218,-30.885712,,,,,,,
1504199265.969653,0.413037,0.695308,0.422185,0.786201,-1.450706,-1.643747,0.308212,-0.640622,-0.703284,-0.039382,-0.001056,0.031867,18.664858,-7.460446,-30.964233,,,,,,,
1504199265.979663,0.412897,0.695153,0.397791,0.720273,-1.619488,-1.744967,0.308153,-0.640503,-0.703418,-0.015459,0.041153,0.035373,18.664858,-7.460446,-30.964233,,,,,,,
1504199265.989673,0.411430,0.693957,0.372762,0.641430,-1.790315,-1.826992,0.307428,-0.639584,-0.704571,-0.006616,0.078152,0.031674,18.138994,-7.162656,-31.042816,,,,,,,
1504199265.999682,0.408594,0.691838,0.347349,0.567985,-1.942025,-1.890896,0.305966,-0.637954,-0.706682,-0.003827,0.106246,0.022265,18.138994,-7.162656,-31.042816,,,,,,,
1504199266.009692,0.404539,0.689027,0.321607,0.513843,-2.074723,-1.944126,0.303802,-0.635786,-0.709563,-0.004898,0.113890,0.022536,17.088137,-7.315732,-31.869263,,,,,,,
1504199266.019702,0.399542,0.685822,0.295647,0.483403,-2.166080,-1.977107,0.301044,-0.633310,-0.712946,-0.014484,0.108301,0.031687,17.088137,-7.315732,-31.869263,,,,,,,
1504199266.029712,0.394132,0.682555,0.269528,0.483283,-2.191635,-1.994141,0.297976,-0.630778,-0.716470,-0.027163,0.104258,0.043298,15.886370,-6.795529,-32.176178,,,,,,,
1504199266.039721,0.388973,0.679653,0.243204,0.521969,-2.161045,-2.000532,0.294968,-0.628523,-0.719689,-0.036026,0.110747,0.057198,15.886370,-6.795529,-32.176178,,,,,,,
1504199266.049701,0.384602,0.677359,0.216652,0.583424,-2.078439,-1.996301,0.292360,-0.626737,-0.722306,-0.050600,0.115308,0.077058,14.835482,-6.799054,-32.778809,,,,,,,
1504199266.059710,0.381403,0.676058,0.190082,0.678143,-1.948194,-1.953671,0.290351,-0.625723,-0.723994,-0.077185,0.120535,0.091013,14.835482,-6.799054,-32.778809,,,,,,,
1504199266.069720,0.379611,0.676116,0.163825,0.797578,-1.776627,-1.880116,0.289040,-0.625768,-0.724479,-0.110939,0.135198,0.099540,13.858828,-6.277982,-33.010132,,,,,,,
1504199266.079730,0.379374,0.677676,0.137861,0.924471,-1.602996,-1.801214,0.288506,-0.626984,-0.723640,-0.135277,0.135666,0.109001,13.858828,-6.277982,-33.010132,,,,,,,
1504199266.089740,0.380788,0.680727,0.112338,1.050343,-1.412326,-1.704199,0.288816,-0.629358,-0.721452,-0.156294,0.138041,0.108262,12.809099,-6.656812,-33.459900,,,,,,,
1504199266.099750,0.383760,0.685245,0.087532,1.162256,-1.219431,-1.585863,0.289892,-0.632862,-0.717947,-0.171880,0.134388,0.102316,12.809099,-6.656812,-33.459900,,,,,,,
1504199266.109759,0.388245,0.690827,0.063635,1.224108,-1.018661,-1.471898,0.291767,-0.637175,-0.713359,-0.179401,0.103514,0.097956,12.659853,-6.957486,-33.458008,,,,,,,
1504199266.119769,0.394037,0.697110,0.040625,1.260167,-0.848568,-1.369665,0.294351,-0.642005,-0.707946,-0.185770,0.074378,0.089111,12.659853,-6.957486,-33.458008,,,,,,,
1504199266.129779,0.401007,0.703949,0.018627,1.287634,-0.679480,-1.257838,0.297557,-0.647233,-0.701818,-0.186046,0.071397,0.071875,11.761675,-7.636670,-33.380157,,,,,,,
1504199266.139789,0.408981,0.711466,-0.002515,1.334080,-0.544638,-1.155525,0.301200,-0.652945,-0.694940,-0.177925,0.075766,0.053536,11.761675,-7.636670,-33.380157,,,,,,,
1504199266.149798,0.417608,0.719661,-0.022957,1.381216,-0.460944,-1.059525,0.305004,-0.659130,-0.687401,-0.167111,0.069576,0.041054,11.688295,-8.237164,-33.300873,,,,,,,
1504199266.159808,0.426394,0.728549,-0.042675,1.426898,-0.420935,-0.955978,0.308597,-0.665788,-0.679334,-0.154407,0.072221,0.015088,11.688295,-8.237164,-33.300873,,,,,,,
1504199266.169818,0.434677,0.738037,-0.061475,1.443300,-0.436102,-0.845980,0.311538,-0.672837,-0.670995,-0.136078,0.072068,-0.012675,11.540361,-8.838590,-32.921722,,,,,,,
1504199266.179828,0.441885,0.747555,-0.079049,1.391239,-0.478404,-0.743525,0.313614,-0.679848,-0.662912,-0.114792,0.057930,-0.040808,11.540361,-8.838590,-32.921722,,,,,,,
1504199266.189837,0.447853,0.756388,-0.095230,1.273165,-0.520134,-0.667871,0.314952,-0.686299,-0.655591,-0.097972,0.036198,-0.068210,11.467440,-9.439679,-32.542419,,,,,,,
1504199266.199847,0.452682,0.764210,-0.110074,1.136135,-0.544635,-0.614695,0.315757,-0.691967,-0.649214,-0.085654,0.028545,-0.087007,11.467440,-9.439679,-32.542419,,,,,,,
1504199266.209857,0.456602,0.771012,-0.123602,1.007834,-0.545764,-0.562613,0.316216,-0.696862,-0.643732,-0.074868,0.031746,-0.095205,11.395113,-10.415311,-32.385284,,,,,,,
1504199266.219867,0.459909,0.777118,-0.135963,0.917024,-0.526957,-0.508366,0.316449,-0.701227,-0.638858,-0.064588,0.027140,-0.093747,11.395113,-10.415311,-32.385284,,,,,,,
1504199266.229876,0.462719,0.782758,-0.147263,0.843267,-0.510422,-0.454085,0.316472,-0.705238,-0.634417,-0.054098,0.011909,-0.083417,11.021471,-10.867307,-32.232819,,,,,,,
1504199266.239886,0.464652,0.787752,-0.157432,0.739387,-0.530925,-0.409398,0.316116,-0.708770,-0.630648,-0.048294,-0.018113,-0.073591,11.021471,-10.867307,-32.232819,,,,,,,
1504199266.249896,0.465166,0.791685,-0.166272,0.589326,-0.592600,-0.370055,0.315188,-0.711538,-0.627989,-0.043902,-0.033503,-0.081224,10.722597,-11.094403,-31.856812,,,,,,,
1504199266.259906,0.463854,0.794178,-0.173457,0.399733,-0.659281,-0.327570,0.313568,-0.713288,-0.626814,-0.043839,-0.032348,-0.101382,10.722597,-11.094403,-31.856812,,,,,,,
1504199266.269916,0.460561,0.795148,-0.178834,0.206915,-0.727004,-0.281887,0.311195,-0.713967,-0.627223,-0.044868,-0.032112,-0.119664,10.198015,-11.396314,-32.080872,,,,,,,
1504199266.279925,0.455495,0.794685,-0.182535,0.029175,-0.780993,-0.242605,0.308159,-0.713643,-0.629088,-0.046731,-0.032665,-0.128297,10.198015,-11.396314,-32.080872,,,,,,,
1504199266.289905,0.449099,0.793012,-0.184798,-0.113098,-0.805432,-0.207585,0.304647,-0.712470,-0.632121,-0.048345,-0.025414,-0.122594,9.523333,-11.474500,-32.006989,,,,,,,
1504199266.299914,0.441923,0.790564,-0.186093,-0.200739,-0.807934,-0.181047,0.300848,-0.710750,-0.635865,-0.045462,-0.006703,-0.106094,9.523333,-11.474500,-32.006989,,,,,,,
1504199266.309924,0.434445,0.787699,-0.186803,-0.250850,-0.791557,-0.161949,0.296941,-0.708732,-0.639942,-0.041600,0.010642,-0.080777,9.148104,-11.475888,-32.157898,,,,,,,
1504199266.319934,0.426999,0.784513,-0.187133,-0.287988,-0.759294,-0.151397,0.293101,-0.706481,-0.644187,-0.033580,0.031401,-0.055596,9.148104,-11.475888,-32.157898,,,,,,,
1504199266.329944,0.419815,0.780885,-0.187248,-0.340925,-0.714093,-0.161175,0.289508,-0.703908,-0.648612,-0.021320,0.046621,-0.035806,8.847200,-11.251782,-32.385376,,,,,,,
1504199266.339953,0.413206,0.776613,-0.187500,-0.395813,-0.664582,-0.200851,0.286421,-0.700867,-0.653260,-0.004988,0.048478,-0.021988,8.847200,-11.251782,-32.385376,,,,,,,
1504199266.349963,0.407500,0.771702,-0.188184,-0.441977,-0.600210,-0.254415,0.284049,-0.697356,-0.658035,0.011270,0.058944,-0.011414,8.321947,-11.104291,-32.312775,,,,,,,
1504199266.359973,0.402747,0.766265,-0.189362,-0.471158,-0.543443,-0.302598,0.282400,-0.693449,-0.662856,0.021769,0.077086,-0.001756,8.321947,-11.104291,-32.312775,,,,,,,
1504199266.369983,0.398695,0.760403,-0.190772,-0.484618,-0.497501,-0.311243,0.281285,-0.689214,-0.667730,0.022731,0.086049,0.009481,8.096376,-10.880307,-32.315033,,,,,,,
1504199266.379992,0.394793,0.754966,-0.192086,-0.455752,-0.477513,-0.290948,0.280114,-0.685264,-0.672272,0.016623,0.081275,0.017929,8.096376,-10.880307,-32.315033,,,,,,,
1504199266.390002,0.390713,0.749948,-0.193112,-0.427176,-0.479924,-0.248198,0.278675,-0.681601,-0.676580,0.011684,0.068487,0.024679,7.794390,-10.355756,-32.769714,,,,,,,
1504199266.400012,0.386062,0.745346,-0.193597,-0.409494,-0.503569,-0.194755,0.276704,-0.678226,-0.680767,0.004928,0.058918,0.024563,7.794390,-10.355756,-32.769714,,,,,,,
1504199266.410022,0.381003,0.740661,-0.193708,-0.411968,-0.524894,-0.160567,0.274435,-0.674776,-0.685101,0.005213,0.047533,0.021786,7.194307,-10.283597,-32.696747,,,,,,,
1504199266.420032,0.375467,0.736243,-0.193424,-0.420688,-0.536755,-0.139199,0.271728,-0.671509,-0.689376,0.007278,0.040329,0.020355,7.194307,-10.283597,-32.696747,,,,,,,
1504199266.430041,0.369659,0.731893,-0.192909,-0.416626,-0.548533,-0.116756,0.268773,-0.668279,-0.693660,0.007243,0.047552,0.020640,6.968706,-10.134305,-32.848419,,,,,,,
1504199266.440051,0.363914,0.727569,-0.192386,-0.382529,-0.543502,-0.099629,0.265810,-0.665056,-0.697887,0.007933,0.055101,0.019984,6.968706,-10.134305,-32.848419,,,,,,,
1504199266.450061,0.358365,0.724000,-0.191938,-0.303593,-0.527131,-0.069635,0.262764,-0.662387,-0.701569,0.009697,0.046023,0.021240,6.968294,-10.059018,-32.998993,,,,,,,
1504199266.460071,0.353402,0.721227,-0.191542,-0.226483,-0.470256,-0.036514,0.259914,-0.660306,-0.704585,0.009129,0.036893,0.023143,6.968294,-10.059018,-32.998993,,,,,,,
1504199266.470080,0.349390,0.719388,-0.191321,-0.145993,-0.395287,-0.009824,0.257500,-0.658924,-0.706762,0.007713,0.025410,0.024374,6.217394,-9.612683,-32.854218,,,,,,,
1504199266.480090,0.345793,0.718500,-0.190852,-0.078140,-0.306350,0.005081,0.255154,-0.658257,-0.708234,0.009022,0.010338,0.022626,6.217394,-9.612683,-32.854218,,,,,,,
1504199266.490100,0.343126,0.718103,-0.190629,-0.031669,-0.234269,0.001832,0.253353,-0.657957,-0.709158,0.011418,0.005370,0.015844,6.293077,-9.837491,-32.777374,,,,,,,
1504199266.500110,0.341147,0.717984,-0.190675,-0.004588,-0.191854,-0.012072,0.251974,-0.657868,-0.709731,0.015024,0.006852,0.003341,6.293077,-9.837491,-32.777374,,,,,,,
1504199266.510119,0.340598,0.716864,-0.191741,-0.002252,-0.184377,-0.039840,0.251831,-0.657024,-0.710564,0.023972,0.004589,-0.017326,5.769136,-10.215009,-32.700836,,,,,,,
1504199266.520129,0.339139,0.716526,-0.192474,-0.019281,-0.199121,-0.071865,0.250868,-0.656769,-0.711140,0.037539,0.002228,-0.039211,5.769136,-10.215009,-32.700836,,,,,,,
1504199266.530108,0.337669,0.715818,-0.193560,-0.045963,-0.225499,-0.112426,0.249976,-0.656235,-0.711946,0.049371,-0.008499,-0.058012,5.619555,-10.290982,-32.550659,,,,,,,
1504199266.540118,0.336222,0.714790,-0.195135,-0.059844,-0.254111,-0.156163,0.249168,-0.655459,-0.712944,0.052620,-0.019453,-0.072884,5.619555,-10.290982,-32.550659,,,,,,,
1504199266.550128,0.335754,0.711911,-0.197685,-0.046036,-0.273374,-0.174262,0.249455,-0.653282,-0.714839,0.047328,-0.023980,-0.079427,5.543764,-10.066022,-32.702515,,,,,,,
1504199266.560138,0.334343,0.711144,-0.199814,-0.008736,-0.280072,-0.176321,0.248610,-0.652701,-0.715664,0.039048,-0.034967,-0.082295,5.543764,-10.066022,-32.702515,,,,,,,
1504199266.570147,0.333034,0.710740,-0.202034,0.025428,-0.273966,-0.170935,0.247760,-0.652394,-0.716238,0.030301,-0.053584,-0.079752,5.393908,-9.992139,-32.478424,,,,,,,
1504199266.580157,0.331939,0.710664,-0.204520,0.064988,-0.272146,-0.184746,0.246991,-0.652337,-0.716556,0.023517,-0.069770,-0.077664,5.393908,-9.992139,-32.478424,,,,,,,
1504199266.590167,0.330840,0.710811,-0.207230,0.086466,-0.271230,-0.211395,0.246173,-0.652449,-0.716735,0.022001,-0.071871,-0.079529,5.169588,-10.218305,-32.402313,,,,,,,
1504199266.600177,0.330228,0.710924,-0.210664,0.095055,-0.290439,-0.252975,0.245710,-0.652534,-0.716816,0.020434,-0.066826,-0.084606,5.169588,-10.218305,-32.402313,,,,,,,
1504199266.610187,0.329665,0.710811,-0.214517,0.081172,-0.312667,-0.286050,0.245331,-0.652449,-0.717024,0.018784,-0.058031,-0.095690,4.945192,-10.369611,-32.251740,,,,,,,
1504199266.620196,0.329023,0.710699,-0.218435,0.088540,-0.321260,-0.279617,0.244894,-0.652364,-0.717251,0.007700,-0.052730,-0.112202,4.945192,-10.369611,-32.251740,,,,,,,
1504199266.630206,0.328119,0.710791,-0.221938,0.095840,-0.314972,-0.235852,0.244226,-0.652433,-0.717415,-0.013238,-0.066439,-0.118080,4.794939,-10.220426,-32.178223,,,,,,,
1504199266.640216,0.327007,0.711136,-0.224706,0.102181,-0.282058,-0.170788,0.243355,-0.652695,-0.717473,-0.034447,-0.103790,-0.115336,4.794939,-10.220426,-32.178223,,,,,,,
1504199266.650226,0.325831,0.711751,-0.226650,0.104379,-0.232062,-0.103626,0.242383,-0.653161,-0.717378,-0.051312,-0.142173,-0.108656,5.020311,-10.369428,-32.176544,,,,,,,
1504199266.660235,0.324646,0.712515,-0.227804,0.095941,-0.181973,-0.042887,0.241374,-0.653739,-0.717192,-0.063059,-0.166391,-0.104051,5.020311,-10.369428,-32.176544,,,,,,,
1504199266.670245,0.323389,0.713293,-0.228242,0.079968,-0.148856,0.003993,0.240310,-0.654327,-0.717012,-0.063721,-0.171875,-0.106184,4.645281,-10.445813,-32.326904,,,,,,,
1504199266.680255,0.321810,0.714055,-0.228136,0.065867,-0.155172,0.040271,0.239020,-0.654903,-0.716918,-0.054892,-0.170628,-0.112397,4.645281,-10.445813,-32.326904,,,,,,,
1504199266.690265,0.319612,0.714612,-0.227573,0.029172,-0.194319,0.061625,0.237329,-0.655324,-0.717095,-0.040277,-0.162226,-0.126075,4.421175,-10.672269,-32.100739,,,,,,,
1504199266.700274,0.316723,0.714828,-0.226770,-0.006494,-0.249439,0.064862,0.235212,-0.655488,-0.717643,-0.025770,-0.150939,-0.139459,4.421175,-10.672269,-32.100739,,,,,,,
1504199266.710284,0.313245,0.714802,-0.225833,-0.030351,-0.296131,0.067038,0.232720,-0.655468,-0.718473,-0.016274,-0.134846,-0.150378,4.270006,-10.297650,-32.253967,,,,,,,
1504199266.720294,0.309479,0.714651,-0.224746,-0.041139,-0.305642,0.075576,0.230043,-0.655354,-0.719438,-0.014283,-0.125927,-0.152311,4.270006,-10.297650,-32.253967,,,,,,,
1504199266.730304,0.305802,0.714477,-0.223444,-0.050567,-0.272549,0.093647,0.227430,-0.655222,-0.720388,-0.016325,-0.121771,-0.146235,4.045992,-10.598950,-32.102234,,,,,,,
1504199266.740313,0.302477,0.714058,-0.221854,-0.086402,-0.211525,0.103084,0.225115,-0.654906,-0.721402,-0.022235,-0.127305,-0.137500,4.045992,-10.598950,-32.102234,,,,,,,
1504199266.750323,0.299688,0.713224,-0.220114,-0.131767,-0.149343,0.099693,0.223263,-0.654275,-0.722549,-0.026196,-0.132239,-0.131150,3.821291,-10.675122,-32.027252,,,,,,,
1504199266.760333,0.297299,0.711816,-0.218186,-0.192193,-0.101956,0.097370,0.221807,-0.653210,-0.723961,-0.026128,-0.130375,-0.127602,3.821291,-10.675122,-32.027252,,,,,,,
1504199266.770343,0.295019,0.709847,-0.216028,-0.247544,-0.084453,0.099378,0.220528,-0.651718,-0.725693,-0.021767,-0.129166,-0.126281,3.521563,-10.826322,-32.101837,,,,,,,
1504199266.780294,0.292494,0.707460,-0.213592,-0.292533,-0.100078,0.110002,0.219144,-0.649906,-0.727735,-0.015302,-0.127362,-0.122607,3.521563,-10.826322,-32.101837,,,,,,,
1504199266.790304,0.289372,0.704711,-0.210838,-0.333534,-0.146644,0.127091,0.217380,-0.647813,-0.730126,-0.010501,-0.128996,-0.115287,3.445726,-10.451795,-32.029846,,,,,,,
1504199266.800314,0.285443,0.701676,-0.207704,-0.365048,-0.205014,0.148488,0.215062,-0.645499,-0.732857,-0.007328,-0.127756,-0.107368,3.445726,-10.451795,-32.029846,,,,,,,
1504199266.810323,0.280827,0.698655,-0.204188,-0.360197,-0.243453,0.183788,0.212216,-0.643189,-0.735713,-0.006894,-0.123352,-0.094472,3.595049,-10.225980,-32.106171,,,,,,,
1504199266.820333,0.275777,0.696081,-0.200232,-0.321014,-0.250219,0.231901,0.208949,-0.641215,-0.738365,-0.004496,-0.125035,-0.074470,3.595049,-10.225980,-32.106171,,,,,,,
1504199266.830343,0.270761,0.693883,-0.196154,-0.286811,-0.236658,0.241543,0.205619,-0.639527,-0.740760,0.002237,-0.137756,-0.050896,3.369570,-10.076840,-32.182861,,,,,,,
1504199266.840353,0.266169,0.691971,-0.192441,-0.250243,-0.216685,0.214886,0.202536,-0.638056,-0.742875,0.017252,-0.126806,-0.035765,3.369570,-10.076840,-32.182861,,,,,,,
1504199266.850363,0.262253,0.690138,-0.189417,-0.235911,-0.192239,0.161498,0.199928,-0.636643,-0.744791,0.034249,-0.099959,-0.037969,2.919161,-9.779309,-31.961212,,,,,,,
1504199266.860373,0.259207,0.687983,-0.187365,-0.254482,-0.167486,0.073895,0.198010,-0.634980,-0.746721,0.049610,-0.077193,-0.044966,2.919161,-9.779309,-31.961212,,,,,,,
1504199266.870383,0.259504,0.684966,-0.187902,-0.307036,-0.132840,-0.027664,0.198722,-0.632647,-0.748510,0.056771,-0.053632,-0.054011,2.618624,-9.705213,-32.187531,,,,,,,
1504199266.880392,0.258547,0.681300,-0.188046,-0.365979,-0.096017,-0.130302,0.198598,-0.629804,-0.750937,0.058360,-0.042834,-0.058633,2.618624,-9.705213,-32.187531,,,,,,,
1504199266.890401,0.258582,0.676871,-0.189149,-0.417528,-0.057143,-0.214785,0.199335,-0.626357,-0.753620,0.054251,-0.042024,-0.054821,2.542849,-9.480237,-32.339417,,,,,,,
1504199266.900411,0.259352,0.671980,-0.190876,-0.441546,-0.023858,-0.266120,0.200698,-0.622536,-0.756418,0.044251,-0.050132,-0.045584,2.542849,-9.480237,-32.339417,,,,,,,
1504199266.910421,0.261308,0.667344,-0.193422,-0.453060,-0.012016,-0.290710,0.202921,-0.618902,-0.758804,0.031301,-0.058650,-0.032456,2.391481,-9.030622,-32.493164,,,,,,,
1504199266.920431,0.262513,0.662163,-0.195597,-0.456230,-0.016238,-0.303517,0.204665,-0.614824,-0.761645,0.017640,-0.070692,-0.016935,2.391481,-9.030622,-32.493164,,,,,,,
1504199266.930441,0.263560,0.656912,-0.197865,-0.461746,-0.042826,-0.309884,0.206300,-0.610674,-0.764537,0.007186,-0.075696,-0.004567,2.990618,-8.727765,-32.568939,,,,,,,
1504199266.940450,0.264114,0.651549,-0.200101,-0.473924,-0.098137,-0.309807,0.207576,-0.606419,-0.767573,-0.002131,-0.062771,0.002711,2.990618,-8.727765,-32.568939,,,,,,,
1504199266.950460,0.263364,0.647136,-0.201955,-0.479965,-0.181219,-0.301126,0.207695,-0.602904,-0.770305,-0.011650,-0.043779,0.000896,2.764864,-8.428784,-32.571747,,,,,,,
1504199266.960470,0.261958,0.641790,-0.203727,-0.478694,-0.266515,-0.264682,0.207444,-0.598631,-0.773698,-0.033066,-0.029391,-0.008330,2.764864,-8.428784,-32.571747,,,,,,,
1504199266.970480,0.259463,0.636668,-0.204901,-0.466745,-0.338068,-0.207963,0.206296,-0.594519,-0.777167,-0.031919,-0.033502,-0.004861,2.765276,-8.504086,-32.421204,,,,,,,
1504199266.980489,0.256072,0.631743,-0.205555,-0.463089,-0.389289,-0.167305,0.204399,-0.590552,-0.780685,-0.037132,-0.045053,0.001159,2.765276,-8.504086,-32.421204,,,,,,,
1504199266.990499,0.250959,0.628158,-0.205187,-0.463409,-0.413830,-0.142703,0.200929,-0.587655,-0.783766,-0.039125,-0.056342,0.007811,2.388857,-8.204862,-32.874359,,,,,,,
1504199267.000510,0.247001,0.623455,-0.205320,-0.449499,-0.394787,-0.120297,0.198499,-0.583844,-0.787226,-0.040601,-0.046695,0.016306,2.388857,-8.204862,-32.874359,,,,,,,
1504199267.010520,0.243613,0.619069,-0.205348,-0.413767,-0.319440,-0.104357,0.196446,-0.580278,-0.790371,-0.039494,-0.033080,0.029980,2.313280,-7.980206,-32.876221,,,,,,,
1504199267.020499,0.241278,0.615209,-0.205443,-0.358489,-0.208013,-0.099121,0.195134,-0.577129,-0.792997,-0.039678,-0.025425,0.047331,2.313280,-7.980206,-32.876221,,,,,,,
1504199267.030509,0.238968,0.614165,-0.205005,-0.277477,-0.086146,-0.102385,0.193445,-0.576276,-0.794031,-0.042291,-0.014331,0.064447,2.012453,-7.606702,-32.804810,,,,,,,
1504199267.040517,0.239270,0.611731,-0.205664,-0.207251,0.016650,-0.113118,0.194016,-0.574286,-0.795332,-0.045334,-0.006143,0.075514,2.012453,-7.606702,-32.804810,,,,,,,
1504199267.050527,0.240518,0.609765,-0.206708,-0.159715,0.075957,-0.136624,0.195277,-0.572675,-0.796185,-0.044154,-0.005847,0.071347,2.011629,-7.456098,-33.105896,,,,,,,
1504199267.060537,0.242309,0.608050,-0.208178,-0.130609,0.095992,-0.164361,0.196938,-0.571268,-0.796786,-0.036583,-0.006780,0.052386,2.011629,-7.456098,-33.105896,,,,,,,
1504199267.070547,0.242917,0.607574,-0.209341,-0.095456,0.070152,-0.195202,0.197488,-0.570878,-0.796930,-0.029245,-0.001846,0.026819,2.237490,-7.755246,-33.028076,,,,,,,
1504199267.080556,0.244524,0.606463,-0.211781,-0.046738,0.003719,-0.229157,0.198921,-0.569965,-0.797227,-0.023461,0.004535,0.001283,2.237490,-7.755246,-33.028076,,,,,,,
1504199267.090566,0.245681,0.605773,-0.214754,0.007232,-0.072349,-0.262019,0.199939,-0.569398,-0.797377,-0.023120,0.016099,-0.017641,2.086672,-7.381070,-32.956299,,,,,,,
1504199267.100576,0.246432,0.605562,-0.218204,0.061251,-0.135641,-0.284229,0.200568,-0.569224,-0.797343,-0.028662,0.024882,-0.030095,2.086672,-7.381070,-32.956299,,,,,,,
1504199267.110586,0.244005,0.604374,-0.220368,0.080056,-0.193324,-0.300107,0.198795,-0.568247,-0.798483,-0.039493,0.014414,-0.033334,2.011934,-7.531247,-33.030334,,,,,,,
1504199267.120596,0.243875,0.604458,-0.224108,0.080731,-0.237028,-0.291490,0.198680,-0.568317,-0.798463,-0.055567,-0.009656,-0.037810,2.011934,-7.531247,-33.030334,,,,,,,
1504199267.130605,0.243210,0.604364,-0.227418,0.045175,-0.259149,-0.257356,0.198161,-0.568239,-0.798647,-0.073665,-0.029402,-0.050962,1.861864,-7.457074,-32.956299,,,,,,,
1504199267.140615,0.241943,0.603881,-0.230143,-0.007549,-0.290722,-0.218965,0.197215,-0.567841,-0.799164,-0.084666,-0.052566,-0.062027,1.861864,-7.457074,-32.956299,,,,,,,
1504199267.150625,0.234650,0.603556,-0.229284,-0.067016,-0.356369,-0.170908,0.191425,-0.567574,-0.800760,-0.088824,-0.052681,-0.070959,1.637499,-7.757932,-33.029572,,,,,,,
1504199267.160635,0.230931,0.602253,-0.230496,-0.116258,-0.472177,-0.109947,0.188614,-0.566500,-0.802186,-0.093582,-0.035123,-0.087219,1.637499,-7.757932,-33.029572,,,,,,,
1504199267.170645,0.225149,0.600714,-0.230652,-0.155277,-0.628588,-0.024346,0.184168,-0.565232,-0.804112,-0.088800,-0.011505,-0.105678,1.411745,-7.458951,-33.032379,,,,,,,
1504199267.180655,0.216937,0.599249,-0.229525,-0.165743,-0.800180,0.088015,0.177736,-0.564023,-0.806405,-0.082429,0.012204,-0.125877,1.411745,-7.458951,-33.032379,,,,,,,
1504199267.190665,0.206054,0.597910,-0.226809,-0.161246,-0.956995,0.218522,0.169104,-0.562916,-0.809030,-0.073355,0.013341,-0.139243,1.111376,-7.310300,-33.034241,,,,,,,
1504199267.200675,0.193225,0.597095,-0.222445,-0.145768,-1.056390,0.378835,0.158799,-0.562242,-0.811583,-0.064485,0.005434,-0.146364,1.111376,-7.310300,-33.034241,,,,,,,
1504199267.210683,0.178861,0.596761,-0.216178,-0.123347,-1.085517,0.543305,0.147159,-0.561966,-0.813964,-0.055546,-0.002105,-0.144791,0.661562,-7.387326,-33.034790,,,,,,,
1504199267.220693,0.163635,0.596901,-0.208146,-0.088704,-1.062515,0.693828,0.134736,-0.562082,-0.816033,-0.043550,-0.013648,-0.136192,0.661562,-7.387326,-33.034790,,,,,,,
1504199267.230703,0.147959,0.597766,-0.198403,-0.019634,-1.002503,0.846481,0.121856,-0.562798,-0.817563,-0.029815,-0.013237,-0.136050,-0.163511,-7.316175,-32.962402,,,,,,,
1504199267.240713,0.131958,0.599761,-0.187033,0.098524,-0.946085,0.991753,0.108611,-0.564446,-0.818294,-0.011749,-0.024208,-0.144841,-0.163511,-7.316175,-32.962402,,,,,,,
1504199267.250723,0.115640,0.603133,-0.174585,0.248711,-0.926096,1.074168,0.095025,-0.567225,-0.818062,0.013877,-0.049932,-0.153419,-0.913877,-7.169553,-32.965393,,,,,,,
1504199267.260732,0.098808,0.608388,-0.162082,0.470116,-0.990790,1.074665,0.080947,-0.571546,-0.816568,0.042405,-0.049899,-0.169531,-0.913877,-7.169553,-32.965393,,,,,,,
1504199267.270712,0.081127,0.615761,-0.149962,0.705197,-1.100318,1.042176,0.066154,-0.577580,-0.813649,0.064278,-0.023952,-0.190578,-1.662596,-7.548368,-32.739410,,,,,,,
1504199267.280721,0.062442,0.625317,-0.138513,0.935941,-1.236420,0.980907,0.050594,-0.585354,-0.809197,0.083226,0.004956,-0.212806,-1.662596,-7.548368,-32.739410,,,,,,,
1504199267.290731,0.042785,0.635362,-0.127309,0.938668,-1.316328,0.947963,0.034425,-0.593469,-0.804120,0.095366,0.036951,-0.234652,-2.636335,-8.002896,-32.663422,,,,,,,
1504199267.300741,0.023343,0.643833,-0.116372,0.769723,-1.269049,0.883543,0.018668,-0.600266,-0.799583,0.099709,0.059952,-0.254037,-2.636335,-8.002896,-32.663422,,,,,,,
1504199267.310751,0.006006,0.650262,-0.106644,0.591453,-1.100137,0.744174,0.004781,-0.605395,-0.795911,0.111339,0.099169,-0.275622,-3.384260,-8.831281,-32.659088,,,,,,,
1504199267.320760,-0.007956,0.655336,-0.099056,0.481141,-0.869927,0.554646,-0.006308,-0.609426,-0.792818,0.097083,0.103490,-0.276777,-3.384260,-8.831281,-32.659088,,,,,,,
1504199267.330770,-0.018274,0.659748,-0.093708,0.438953,-0.656269,0.370603,-0.014438,-0.612918,-0.790015,0.072940,0.083698,-0.258356,-4.133574,-9.059796,-32.584259,,,,,,,
1504199267.340780,-0.025239,0.664163,-0.090673,0.461673,-0.466585,0.183513,-0.019872,-0.616400,-0.787182,0.055669,0.068030,-0.241565,-4.133574,-9.059796,-32.584259,,,,,,,
1504199267.350791,-0.029798,0.669765,-0.090000,0.598650,-0.403574,-0.011695,-0.023357,-0.620802,-0.783619,0.047237,0.076780,-0.234386,-4.283537,-8.985776,-32.435211,,,,,,,
1504199267.360799,-0.032929,0.677379,-0.091754,0.810622,-0.436019,-0.207673,-0.025654,-0.626753,-0.778795,0.026845,0.068816,-0.221937,-4.283537,-8.985776,-32.435211,,,,,,,
1504199267.370809,-0.035525,0.687573,-0.095865,1.068923,-0.543440,-0.400236,-0.027447,-0.634664,-0.772301,0.001401,0.074376,-0.218483,-4.881804,-9.588773,-32.282166,,,,,,,
1504199267.380819,-0.037931,0.700349,-0.101888,1.318354,-0.659369,-0.539429,-0.028996,-0.644485,-0.764067,-0.026592,0.085311,-0.206453,-4.881804,-9.588773,-32.282166,,,,,,,
1504199267.390829,-0.040719,0.714837,-0.108855,1.449154,-0.746705,-0.592418,-0.030742,-0.655495,-0.754574,-0.045643,0.075401,-0.174595,-5.179884,-10.265424,-32.127808,,,,,,,
1504199267.400838,-0.044381,0.730018,-0.115810,1.503700,-0.856922,-0.581455,-0.033060,-0.666883,-0.744429,-0.035009,0.045163,-0.139101,-5.179884,-10.265424,-32.127808,,,,,,,
1504199267.410848,-0.049284,0.745154,-0.122072,1.474082,-0.916421,-0.514155,-0.036209,-0.678085,-0.734091,-0.020234,0.025528,-0.101602,-5.401533,-11.466886,-31.894348,,,,,,,
1504199267.420858,-0.054928,0.759450,-0.126756,1.382025,-0.875457,-0.385221,-0.039814,-0.688523,-0.724121,0.001911,0.035737,-0.102417,-5.401533,-11.466886,-31.894348,,,,,,,
1504199267.430868,-0.061468,0.772260,-0.130147,1.216059,-0.895492,-0.299014,-0.044004,-0.697756,-0.714982,0.009367,-0.073286,-0.041396,-5.623060,-12.668500,-31.585907,,,,,,,
1504199267.440878,-0.069188,0.782603,-0.132421,0.950545,-0.952009,-0.206510,-0.049021,-0.705128,-0.707384,-0.005941,-0.136852,-0.049605,-5.623060,-12.668500,-31.585907,,,,,,,
1504199267.450887,-0.079154,0.789710,-0.133469,0.622269,-1.109257,-0.098994,-0.055671,-0.710149,-0.701847,-0.026986,-0.096248,-0.102260,-6.145384,-13.646161,-31.429871,,,,,,,
1504199267.460897,-0.091507,0.793500,-0.133332,0.278021,-1.263176,0.007421,-0.064090,-0.712812,-0.698421,-0.032270,-0.067492,-0.138402,-6.145384,-13.646161,-31.429871,,,,,,,
1504199267.470907,-0.106223,0.792888,-0.131755,-0.161111,-1.383320,0.153106,-0.074406,-0.712383,-0.697835,-0.030834,-0.008808,-0.160350,-6.668913,-14.098966,-31.202789,,,,,,,
1504199267.480917,-0.122943,0.787779,-0.128477,-0.581844,-1.448242,0.335017,-0.086508,-0.708788,-0.700097,-0.057718,0.064302,-0.159247,-6.668913,-14.098966,-31.202789,,,,,,,
1504199267.490927,-0.140888,0.779210,-0.122869,-0.849092,-1.366365,0.569238,-0.099906,-0.702718,-0.704419,-0.080316,0.084340,-0.127398,-7.644285,-13.953351,-31.206329,,,,,,,
1504199267.500937,-0.158985,0.769707,-0.113740,-0.813133,-1.090973,0.860216,-0.113689,-0.695925,-0.709058,-0.091343,0.052340,-0.059924,-7.644285,-13.953351,-31.206329,,,,,,,
1504199267.510947,-0.175873,0.761410,-0.100672,-0.603094,-0.676330,1.126699,-0.126653,-0.689942,-0.712698,-0.072672,-0.027312,0.027624,-8.471876,-13.056607,-31.440125,,,,,,,
1504199267.520926,-0.190638,0.754716,-0.085073,-0.411030,-0.321080,1.265168,-0.138034,-0.685082,-0.715269,-0.038159,-0.106971,0.104612,-8.471876,-13.056607,-31.440125,,,,,,,
1504199267.530936,-0.204030,0.748528,-0.067910,-0.359964,-0.136203,1.377007,-0.148456,-0.680561,-0.717494,-0.027829,-0.132870,0.145915,-9.447432,-12.835996,-31.444214,,,,,,,
1504199267.540946,-0.218348,0.741391,-0.049722,-0.494566,-0.228972,1.476207,-0.159762,-0.675314,-0.720019,-0.019849,-0.088403,0.124789,-9.447432,-12.835996,-31.444214,,,,,,,
1504199267.550954,-0.235190,0.731587,-0.031625,-0.708760,-0.557609,1.539393,-0.173399,-0.668052,-0.723629,0.018538,-0.015191,0.080746,-10.049086,-12.313245,-31.674652,,,,,,,
1504199267.560964,-0.255522,0.719507,-0.013817,-0.889310,-0.948328,1.602745,-0.190101,-0.659014,-0.727710,0.052284,0.027895,0.031223,-10.049086,-12.313245,-31.674652,,,,,,,
1504199267.570974,-0.279610,0.706161,0.004081,-0.926878,-1.332774,1.673807,-0.209983,-0.648917,-0.731309,0.081336,0.031120,0.017305,-10.501112,-11.639813,-31.905792,,,,,,,
1504199267.580984,-0.307013,0.692781,0.021890,-0.858278,-1.682874,1.691621,-0.232544,-0.638680,-0.733493,0.114929,0.039894,0.038165,-10.501112,-11.639813,-31.905792,,,,,,,
1504199267.590994,-0.336957,0.680783,0.039056,-0.664905,-1.967832,1.611336,-0.256916,-0.629402,-0.733381,0.149967,0.050117,0.071089,-11.702681,-10.970349,-31.838837,,,,,,,
1504199267.601003,-0.367808,0.671206,0.054982,-0.401750,-2.114755,1.451941,-0.281570,-0.621930,-0.730699,0.172714,0.035978,0.109010,-11.702681,-10.970349,-31.838837,,,,,,,
1504199267.611013,-0.398102,0.664411,0.069411,-0.147011,-2.137958,1.252819,-0.305205,-0.616596,-0.725713,0.179701,0.021686,0.146673,-13.429106,-10.228696,-31.548706,,,,,,,
1504199267.621023,-0.427006,0.659691,0.081916,-0.011294,-2.111148,1.038459,-0.327252,-0.612872,-0.719231,0.187634,0.026386,0.177956,-13.429106,-10.228696,-31.548706,,,,,,,
1504199267.631033,-0.453826,0.656068,0.092113,0.024476,-2.034507,0.834512,-0.347393,-0.610005,-0.712188,0.191662,0.065328,0.187636,-15.078642,-10.236707,-31.252777,,,,,,,
1504199267.641042,-0.477714,0.653363,0.100267,0.060072,-1.831084,0.654892,-0.365062,-0.607860,-0.705149,0.188853,0.107143,0.181926,-15.078642,-10.236707,-31.252777,,,,,,,
1504199267.651052,-0.497386,0.651962,0.106703,0.137427,-1.478816,0.469744,-0.379268,-0.606747,-0.698580,0.182292,0.136044,0.192324,-16.278181,-10.018445,-30.582428,,,,,,,
1504199267.661062,-0.511974,0.652315,0.111636,0.249567,-1.052231,0.274919,-0.389314,-0.607027,-0.692786,0.168168,0.143526,0.228675,-16.278181,-10.018445,-30.582428,,,,,,,
1504199267.671072,-0.521630,0.654411,0.114921,0.331512,-0.669083,0.074781,-0.395350,-0.608692,-0.687890,0.140498,0.148960,0.271707,-16.952406,-10.097241,-30.208527,,,,,,,
1504199267.681082,-0.527004,0.658062,0.116594,0.401018,-0.365765,-0.112429,-0.397920,-0.611585,-0.683830,0.117815,0.143186,0.294472,-16.952406,-10.097241,-30.208527,,,,,,,
1504199267.691092,-0.529577,0.663079,0.117162,0.474588,-0.186149,-0.242841,-0.398123,-0.615546,-0.680148,0.090796,0.094062,0.302325,-17.626844,-10.325269,-30.208496,,,,,,,
1504199267.701102,-0.530911,0.669125,0.117379,0.552334,-0.106808,-0.301553,-0.397139,-0.620300,-0.676394,0.077772,0.078765,0.284197,-17.626844,-10.325269,-30.208496,,,,,,,
1504199267.711112,-0.532578,0.676245,0.118062,0.664259,-0.129027,-0.316264,-0.396013,-0.625869,-0.671909,0.088823,0.068908,0.255588,-17.624876,-10.925870,-29.903961,,,,,,,
1504199267.721120,-0.534754,0.683813,0.119269,0.708801,-0.150726,-0.296935,-0.395049,-0.631753,-0.666951,0.109557,0.070016,0.228627,-17.624876,-10.925870,-29.903961,,,,,,,
1504199267.731130,-0.537959,0.691325,0.121042,0.712227,-0.230716,-0.256227,-0.394742,-0.637558,-0.661588,0.116742,0.049988,0.224835,-17.774305,-11.151547,-29.902649,,,,,,,
1504199267.741140,-0.542769,0.698383,0.123059,0.673376,-0.396667,-0.219710,-0.395585,-0.642980,-0.655812,0.126786,0.009389,0.234440,-17.774305,-11.151547,-29.902649,,,,,,,
1504199267.751150,-0.550027,0.704940,0.125290,0.647718,-0.653294,-0.192617,-0.398122,-0.647988,-0.649315,0.133093,-0.018592,0.231102,-17.621977,-11.901471,-29.596680,,,,,,,
1504199267.761129,-0.560994,0.711645,0.127913,0.689572,-1.017018,-0.182296,-0.402898,-0.653081,-0.641216,0.142660,-0.037212,0.222744,-17.621977,-11.901471,-29.596680,,,,,,,
1504199267.771139,-0.576926,0.719051,0.132127,0.834370,-1.411491,-0.110901,-0.410413,-0.658671,-0.630645,0.160444,-0.058279,0.207748,-18.370466,-12.280591,-29.220703,,,,,,,
1504199267.781137,-0.598510,0.727416,0.139344,1.053925,-1.759755,0.020316,-0.420810,-0.664942,-0.617067,0.180026,-0.085958,0.195573,-18.370466,-12.280591,-29.220703,,,,,,,
1504199267.791146,-0.625544,0.736825,0.149860,1.269639,-2.073856,0.120513,-0.433653,-0.671940,-0.600368,0.214629,-0.092205,0.184428,-19.117079,-13.185468,-28.465759,,,,,,,
1504199267.801156,-0.656965,0.747097,0.162756,1.423228,-2.330892,0.146850,-0.448061,-0.679512,-0.580952,0.226870,-0.106804,0.175510,-19.117079,-13.185468,-28.465759,,,,,,,
1504199267.811166,-0.691212,0.757957,0.176464,1.481710,-2.528445,0.084323,-0.462959,-0.687439,-0.559550,0.219932,-0.084625,0.152018,-20.013563,-13.866895,-27.262878,,,,,,,
1504199267.821176,-0.725932,0.768981,0.189471,1.421132,-2.572578,-0.034186,-0.477044,-0.695403,-0.537442,0.221062,-0.056840,0.126675,-20.013563,-13.866895,-27.262878,,,,,,,
1504199267.831185,-0.758521,0.779340,0.200366,1.241243,-2.460150,-0.153178,-0.489320,-0.702810,-0.516356,0.216172,-0.020487,0.104384,-21.283659,-14.925626,-25.758148,,,,,,,
1504199267.841195,-0.787741,0.788871,0.209137,1.081292,-2.236032,-0.240310,-0.499427,-0.709558,-0.497092,0.194663,0.042032,0.097785,-21.283659,-14.925626,-25.758148,,,,,,,
1504199267.851205,-0.812863,0.797962,0.216706,1.000091,-1.884723,-0.296575,-0.507050,-0.715935,-0.479936,0.164902,0.047752,0.099702,-22.180830,-15.157666,-24.258636,,,,,,,
1504199267.861215,-0.833996,0.806670,0.223948,0.948928,-1.472988,-0.288850,-0.512441,-0.721987,-0.464907,0.128439,-0.002134,0.112520,-22.180830,-15.157666,-24.258636,,,,,,,
1504199267.871224,-0.850164,0.814662,0.231224,0.888768,-0.969564,-0.255686,-0.515538,-0.727494,-0.452739,0.095937,-0.005035,0.098400,-23.077208,-15.839261,-22.980774,,,,,,,
1504199267.881234,-0.861335,0.822072,0.237641,0.783481,-0.543495,-0.283304,-0.516460,-0.732558,-0.443428,0.098369,-0.006456,0.102425,-23.077208,-15.839261,-22.980774,,,,,,,
1504199267.891244,-0.867061,0.828992,0.241587,0.597788,-0.205142,-0.373885,-0.515113,-0.737251,-0.437173,0.099982,-0.003747,0.085107,-23.300062,-16.291607,-22.302917,,,,,,,
1504199267.901254,-0.868140,0.835360,0.241857,0.369053,-0.074179,-0.510072,-0.511991,-0.741538,-0.433574,0.112195,0.026832,0.052638,-23.300062,-16.291607,-22.302917,,,,,,,
1504199267.911263,-0.865045,0.840770,0.236544,-0.025075,-0.104847,-0.687890,-0.507585,-0.745157,-0.432548,0.149324,0.050547,0.026374,-22.998930,-16.516018,-21.925507,,,,,,,
1504199267.921273,-0.858416,0.844870,0.224931,-0.402028,-0.248623,-0.853737,-0.502391,-0.747885,-0.433903,0.195353,0.036795,-0.032330,-22.998930,-16.516018,-21.925507,,,,,,,
1504199267.931283,-0.850048,0.848131,0.208270,-0.690070,-0.474129,-1.007544,-0.496907,-0.750045,-0.436480,0.220128,-0.013016,-0.202711,-22.998182,-16.816006,-21.923248,,,,,,,
1504199267.941293,-0.840865,0.850440,0.186510,-0.994951,-0.809245,-1.169726,-0.491586,-0.751571,-0.439868,0.244150,-0.031647,-0.294965,-22.998182,-16.816006,-21.923248,,,,,,,
1504199267.951303,-0.831389,0.852500,0.159411,-1.213413,-1.197199,-1.415991,-0.486251,-0.752928,-0.443463,0.278655,-0.064577,-0.340046,-22.922316,-17.115826,-21.845795,,,,,,,
1504199267.961312,-0.824918,0.855543,0.131625,-1.104715,-1.486861,-1.425966,-0.481686,-0.754927,-0.445043,0.289853,-0.172411,-0.419840,-22.922316,-17.115826,-21.845795,,,,,,,
1504199267.971322,-0.816604,0.858678,0.105506,-1.035739,-0.983428,-1.400049,-0.476242,-0.756979,-0.447410,0.204926,-0.338724,-0.327477,-22.921522,-17.341122,-21.694122,,,,,,,
1504199267.981332,-0.804991,0.861073,0.080470,-0.991760,-0.706923,-1.217934,-0.469706,-0.758542,-0.451652,-0.008199,-0.391909,-0.155587,-22.921522,-17.341122,-21.694122,,,,,,,
1504199267.991342,-0.798465,0.861678,0.060795,-0.879679,-0.874457,-0.854528,-0.466420,-0.758936,-0.454388,-0.075419,-0.285284,-0.080570,-22.321196,-17.338879,-21.467621,,,,,,,
1504199268.001351,-0.794121,0.861020,0.041585,-0.889608,-1.048070,-0.853172,-0.464798,-0.758508,-0.456759,-0.311646,-0.181647,-0.040128,-22.321196,-17.338879,-21.467621,,,,,,,
1504199268.011331,-0.791284,0.862491,0.022121,-0.770615,-1.230003,-1.043710,-0.462706,-0.759465,-0.457291,-0.282975,-0.099269,-0.106659,-22.621046,-17.265667,-21.243927,,,,,,,
1504199268.021340,-0.788112,0.865208,0.001352,-0.743656,-1.262080,-1.152481,-0.459789,-0.761230,-0.457300,0.078853,0.142440,-0.118124,-22.621046,-17.265667,-21.243927,,,,,,,
1504199268.031350,-0.788091,0.869416,-0.016470,-0.419653,-1.398017,-1.086569,-0.457504,-0.763952,-0.455047,0.100784,0.063101,0.019973,-22.395323,-17.415112,-21.017242,,,,,,,
1504199268.041360,-0.795718,0.876485,-0.027506,0.120787,-1.656201,-0.972032,-0.457092,-0.768495,-0.447753,-0.005845,-0.018111,0.126037,-22.395323,-17.415112,-21.017242,,,,,,,
1504199268.051370,-0.809194,0.886357,-0.031810,0.606704,-1.680535,-0.888957,-0.457571,-0.774774,-0.436297,-0.068003,-0.019904,0.335299,-22.767958,-18.092693,-20.563080,,,,,,,
1504199268.061379,-0.824710,0.899288,-0.032487,0.915522,-1.568925,-1.018841,-0.456890,-0.782884,-0.422308,-0.083607,-0.025298,0.461508,-23.214857,-18.696819,-19.509674,,,,,,,
1504199268.071389,-0.836820,0.914802,-0.033775,0.999669,-1.209184,-1.270169,-0.452896,-0.792442,-0.408560,-0.041718,-0.014016,0.406988,-23.214857,-18.696819,-19.509674,,,,,,,
1504199268.081399,-0.842157,0.932466,-0.039218,0.900521,-0.884061,-1.621023,-0.444557,-0.803092,-0.396753,0.097908,0.073294,0.312479,-23.214857,-18.696819,-19.509674,,,,,,,
1504199268.091409,-0.840822,0.952061,-0.049791,0.823793,-0.680617,-1.955611,-0.432215,-0.814613,-0.386777,0.142039,0.093543,0.217221,-22.836134,-19.597073,-18.526947,,,,,,,
1504199268.101419,-0.835136,0.973845,-0.063936,0.879333,-0.569979,-2.218291,-0.416752,-0.827053,-0.377228,0.127903,0.171917,0.063217,-22.836134,-19.597073,-18.526947,,,,,,,
1504199268.111428,-0.827597,0.997580,-0.080126,0.956691,-0.605609,-2.383541,-0.399327,-0.840161,-0.366971,0.133092,0.224072,0.013394,-22.382780,-20.571255,-17.918549,,,,,,,
1504199268.121438,-0.820288,1.021894,-0.096415,1.033980,-0.661688,-2.353421,-0.381579,-0.853098,-0.355840,0.126040,0.202982,0.049809,-22.382780,-20.571255,-17.918549,,,,,,,
1504199268.131448,-0.815101,1.046044,-0.110932,1.135020,-0.756424,-2.227126,-0.364624,-0.865448,-0.343582,0.104568,0.139130,0.094345,-21.254484,-21.617092,-17.457855,,,,,,,
1504199268.141458,-0.815120,1.068778,-0.119950,1.287778,-0.780426,-1.874576,-0.350218,-0.876613,-0.329995,0.060011,0.074779,0.155587,-21.254484,-21.617092,-17.457855,,,,,,,
1504199268.151467,-0.821170,1.090401,-0.123829,1.345787,-0.991062,-1.648882,-0.338253,-0.886812,-0.314879,-0.121387,-0.011152,0.172255,-20.200117,-22.814175,-16.546265,,,,,,,
1504199268.161477,-0.828927,1.110430,-0.125184,1.306619,-0.842803,-1.473090,-0.327523,-0.895890,-0.300183,-0.336326,-0.036636,0.123623,-20.200117,-22.814175,-16.546265,,,,,,,
1504199268.171487,-0.835285,1.129475,-0.124313,1.315576,-0.443410,-1.345691,-0.316715,-0.904188,-0.286593,-0.329403,0.031691,0.007220,-19.594999,-24.089031,-15.260193,,,,,,,
1504199268.181497,-0.841447,1.147957,-0.120781,1.346411,-0.266868,-1.255219,-0.305961,-0.911927,-0.273452,-0.240761,-0.043120,0.063979,-19.594999,-24.089031,-15.260193,,,,,,,
1504199268.191506,-0.848872,1.165632,-0.115107,1.349457,-0.208415,-1.130431,-0.295838,-0.919038,-0.260479,-0.152816,-0.057540,0.075283,-18.992002,-24.837826,-14.503082,,,,,,,
1504199268.201516,-0.860343,1.182256,-0.105393,1.382130,-0.285585,-0.959454,-0.287184,-0.925463,-0.247070,-0.104142,0.017885,-0.032960,-18.992002,-24.837826,-14.503082,,,,,,,
1504199268.211526,-0.878634,1.197307,-0.089959,1.410694,-0.429931,-0.713647,-0.280899,-0.931060,-0.232859,-0.030441,0.016723,-0.068380,-18.613417,-25.812634,-13.744812,,,,,,,
1504199268.221536,-0.903378,1.209971,-0.068901,1.363721,-0.529995,-0.440297,-0.277290,-0.935606,-0.218522,0.039818,0.047849,-0.106231,-18.086699,-25.962078,-12.842346,,,,,,,
1504199268.231545,-0.932106,1.219814,-0.044703,1.226254,-0.638848,-0.220459,-0.276045,-0.939035,-0.204967,0.010436,0.031763,-0.065358,-18.086699,-25.962078,-12.842346,,,,,,,
1504199268.241555,-0.962490,1.227231,-0.020734,1.040528,-0.839908,-0.098742,-0.276422,-0.941560,-0.192500,-0.029639,0.003816,-0.055668,-18.086699,-25.962078,-12.842346,,,,,,,
1504199268.251565,-0.991498,1.232802,-0.000196,0.839761,-0.984262,-0.079622,-0.277495,-0.943422,-0.181528,-0.067766,-0.008925,-0.079169,-18.308836,-26.564877,-11.938385,,,,,,,
1504199268.261544,-1.016100,1.236674,0.012996,0.468496,-1.252923,-0.088331,-0.278769,-0.944698,-0.172721,-0.071512,0.014660,-0.094277,-18.308836,-26.564877,-11.938385,,,,,,,
1504199268.271554,-1.039689,1.239517,0.025671,0.531349,-1.083025,-0.010601,-0.280448,-0.945627,-0.164737,-0.077569,0.029642,-0.057980,-18.232069,-26.641644,-10.887604,,,,,,,
1504199268.281564,-1.066260,1.242813,0.044993,0.757064,-0.721549,0.022242,-0.281996,-0.946694,-0.155720,-0.118700,0.002679,-0.087948,-18.232069,-26.641644,-10.887604,,,,,,,
1504199268.291574,-1.096575,1.246631,0.070242,0.935793,-0.623968,0.068278,-0.283369,-0.947917,-0.145450,-0.158464,-0.090032,0.226947,-18.681089,-26.719707,-10.363159,,,,,,,
1504199268.301583,-1.133334,1.249623,0.103464,1.108716,-0.497715,0.255150,-0.285953,-0.948866,-0.133736,-0.104001,-0.099139,0.172615,-18.681089,-26.719707,-10.363159,,,,,,,
1504199268.311593,-1.174615,1.250137,0.142115,1.133388,-0.455559,0.510228,-0.290778,-0.949028,-0.121632,-0.025689,-0.156578,0.013142,-18.529310,-26.796124,-9.312225,,,,,,,
1504199268.321603,-1.217473,1.247937,0.181923,1.069843,-0.540489,0.707737,-0.297680,-0.948332,-0.109784,0.028744,-0.273836,-0.028079,-18.529310,-26.796124,-9.312225,,,,,,,
1504199268.331613,-1.259338,1.243920,0.219007,0.959290,-0.714406,0.775098,-0.305638,-0.947050,-0.098396,0.009175,-0.336230,-0.035210,-18.753752,-26.573635,-8.564423,,,,,,,
1504199268.341622,-1.299280,1.239040,0.252713,0.889070,-0.820392,0.779433,-0.313772,-0.945472,-0.087351,-0.012385,-0.301446,-0.042303,-19.277281,-26.577938,-7.590698,,,,,,,
1504199268.351632,-1.337123,1.233682,0.284563,0.880068,-0.744662,0.780351,-0.321776,-0.943713,-0.076590,-0.018297,-0.183133,-0.066416,-19.277281,-26.577938,-7.590698,,,,,,,
1504199268.361642,-1.372697,1.227658,0.316291,0.915908,-0.497795,0.835483,-0.329864,-0.941703,-0.066214,-0.079056,-0.076119,-0.011209,-19.877684,-26.056820,-6.996124,,,,,,,
1504199268.371652,-1.404787,1.219907,0.347248,0.875613,-0.237616,0.988661,-0.339008,-0.939067,-0.056801,-0.100598,-0.030262,0.082451,-19.877684,-26.056820,-6.996124,,,,,,,
1504199268.381661,-1.429815,1.212317,0.373258,0.741557,-0.009396,0.850331,-0.347370,-0.936431,-0.049300,-0.124813,-0.040787,0.137496,-20.403135,-25.610073,-6.550781,,,,,,,
1504199268.391671,-1.448953,1.205611,0.395281,0.672301,0.200148,0.738831,-0.354474,-0.934058,-0.043405,-0.065325,0.002249,0.098978,-20.403135,-25.610073,-6.550781,,,,,,,
1504199268.401681,-1.463839,1.199472,0.415170,0.625217,0.413716,0.680734,-0.360776,-0.931848,-0.038735,0.047651,0.078256,0.096826,-20.702269,-25.687328,-6.100952,,,,,,,
1504199268.411691,-1.474552,1.194624,0.432066,0.542789,0.521164,0.479730,-0.365663,-0.930077,-0.035302,-0.087324,0.048882,0.138543,-20.702269,-25.687328,-6.100952,,,,,,,
1504199268.421700,-1.482815,1.192630,0.446890,0.527581,0.563035,0.175428,-0.367789,-0.929343,-0.032442,-0.137521,0.050895,0.072466,-20.853102,-25.313152,-6.029144,,,,,,,
1504199268.431710,-1.491796,1.193054,0.463173,0.633732,0.628451,-0.039051,-0.367673,-0.929500,-0.029107,-0.022632,0.101298,-0.001426,-20.853102,-25.313152,-6.029144,,,,,,,
1504199268.441720,-1.503619,1.194624,0.483092,0.776396,0.678500,-0.111475,-0.366534,-0.930078,-0.024660,-0.035077,0.088998,0.026689,-20.702879,-25.312771,-5.878754,,,,,,,
1504199268.451730,-1.518736,1.195783,0.506745,0.901986,0.683786,-0.040819,-0.365789,-0.930503,-0.019060,-0.021556,0.004920,0.041994,-20.702879,-25.312771,-5.878754,,,,,,,
1504199268.461740,-1.536277,1.195924,0.532419,0.942625,0.616229,0.045831,-0.365935,-0.930555,-0.012637,0.026244,-0.068087,0.053530,-20.551451,-25.613003,-5.426147,,,,,,,
1504199268.471749,-1.554363,1.195496,0.557500,0.904147,0.487586,0.067339,-0.366502,-0.930398,-0.006023,0.006761,-0.087364,0.048336,-20.551451,-25.613003,-5.426147,,,,,,,
1504199268.481759,-1.572545,1.195242,0.580701,0.832368,0.286829,0.018468,-0.366788,-0.930304,0.000641,-0.005954,-0.107598,0.038513,-20.551222,-25.613293,-5.276154,,,,,,,
1504199268.491769,-1.592192,1.195034,0.603375,0.840506,0.102416,0.016673,-0.366898,-0.930228,0.007851,-0.024796,-0.076562,0.019386,-20.551222,-25.613293,-5.276154,,,,,,,
1504199268.501748,-1.615323,1.194625,0.628456,0.947596,0.004587,-0.005385,-0.366998,-0.930078,0.016352,-0.034003,-0.020544,0.001348,-20.475584,-25.464306,-4.602051,,,,,,,
1504199268.511758,-1.642092,1.194877,0.657272,1.085796,0.008888,-0.111893,-0.366195,-0.930170,0.026153,-0.011780,0.021601,0.003465,-20.475584,-25.464306,-4.602051,,,,,,,
1504199268.521768,-1.671086,1.195295,0.688948,1.173860,0.061474,-0.142788,-0.364896,-0.930324,0.036719,0.104169,0.075511,0.011255,-20.399900,-25.464870,-4.151855,,,,,,,
1504199268.531777,-1.701120,1.195169,0.721867,1.205661,0.051595,-0.117098,-0.363746,-0.930278,0.047675,0.132926,0.070246,0.016992,-20.399900,-25.464870,-4.151855,,,,,,,
1504199268.541787,-1.731244,1.193957,0.754157,1.181035,-0.036740,-0.027323,-0.363257,-0.929832,0.058789,0.067587,0.009926,-0.005612,-20.249449,-25.464794,-3.851471,,,,,,,
1504199268.551797,-1.759110,1.192038,0.782855,1.088962,-0.163927,0.046391,-0.363230,-0.929124,0.069221,0.029581,-0.020491,-0.070534,-20.249449,-25.464794,-3.851471,,,,,,,
1504199268.561807,-1.784542,1.189316,0.807778,0.913163,-0.236056,0.095314,-0.363823,-0.928114,0.078972,-0.034310,-0.029390,-0.080513,-20.323179,-25.392071,-2.877258,,,,,,,
1504199268.571816,-1.804814,1.186169,0.827558,0.749072,-0.169768,0.157889,-0.364986,-0.926938,0.087007,-0.074086,-0.018847,-0.097033,-20.323179,-25.392071,-2.877258,,,,,,,
1504199268.581826,-1.819588,1.182694,0.843188,0.627657,0.025114,0.212840,-0.366781,-0.925629,0.093183,-0.077768,-0.003098,-0.115247,-20.397230,-25.543148,-2.501282,,,,,,,
1504199268.591836,-1.825396,1.178081,0.852302,0.551515,0.264408,0.244307,-0.370362,-0.923873,0.096386,-0.092574,-0.015427,-0.091228,-20.397230,-25.543148,-2.501282,,,,,,,
1504199268.601846,-1.830852,1.174674,0.862818,0.445653,0.483759,0.214917,-0.372870,-0.922564,0.099214,-0.125482,-0.016553,-0.037431,-20.397230,-25.543148,-2.501282,,,,,,,
1504199268.611856,-1.831151,1.172489,0.870087,0.288870,0.689759,0.105407,-0.374788,-0.921719,0.099844,-0.106963,0.005108,0.016718,-20.622419,-25.244915,-2.129089,,,,,,,
1504199268.621865,-1.826456,1.171748,0.874794,0.166868,0.979648,0.002214,-0.375912,-0.921431,0.098256,-0.032596,0.031508,-0.014241,-20.473097,-25.243343,-2.578705,,,,,,,
1504199268.631875,-1.815690,1.171856,0.876638,0.033307,1.330308,-0.039197,-0.376852,-0.921473,0.094179,0.011099,0.074549,-0.038149,-20.473097,-25.243343,-2.578705,,,,,,,
1504199268.641885,-1.798760,1.172675,0.874111,-0.168138,1.474782,-0.063284,-0.377657,-0.921791,0.087615,0.023440,0.065071,0.020112,-20.548857,-25.167934,-2.954468,,,,,,,
1504199268.651895,-1.777384,1.173956,0.866324,-0.365242,1.381559,-0.054922,-0.378288,-0.922287,0.079281,0.023460,0.038528,0.031269,-20.548857,-25.167934,-2.954468,,,,,,,
1504199268.661904,-1.755152,1.175095,0.855512,-0.443888,1.174379,-0.020536,-0.378924,-0.922726,0.070659,0.048083,0.030896,-0.084300,-20.623701,-25.542217,-3.476837,,,,,,,
1504199268.671914,-1.729302,1.177028,0.840070,-0.427750,1.068746,-0.003251,-0.378862,-0.923470,0.060560,0.065294,-0.018532,-0.144452,-20.623701,-25.542217,-3.476837,,,,,,,
1504199268.681924,-1.709419,1.177520,0.829308,-0.408380,0.972654,0.023637,-0.379540,-0.923658,0.052953,0.057458,-0.062578,-0.072163,-20.399900,-25.464870,-4.151855,,,,,,,
1504199268.691934,-1.690760,1.177241,0.818519,-0.401342,0.833987,0.101814,-0.380718,-0.923551,0.045893,0.050869,-0.090029,0.007864,-20.399900,-25.464870,-4.151855,,,,,,,
1504199268.701943,-1.674132,1.175676,0.808276,-0.360569,0.679001,0.235583,-0.382866,-0.922950,0.039705,0.027214,-0.096581,-0.020266,-20.101225,-25.162762,-4.528412,,,,,,,
1504199268.711953,-1.660360,1.172742,0.799087,-0.298827,0.468446,0.354543,-0.386072,-0.921817,0.034671,-0.011801,-0.110638,-0.050860,-20.101225,-25.162762,-4.528412,,,,,,,
1504199268.721963,-1.651148,1.169283,0.792317,-0.206787,0.241773,0.362574,-0.389550,-0.920471,0.031369,-0.092429,-0.134995,-0.036892,-20.401289,-25.313519,-4.828003,,,,,,,
1504199268.731973,-1.647426,1.166132,0.789541,-0.033854,0.083765,0.305512,-0.392555,-0.919235,0.030140,-0.120141,-0.120133,-0.026616,-20.401289,-25.313519,-4.828003,,,,,,,
1504199268.741982,-1.649620,1.163582,0.792132,0.170684,-0.005216,0.225968,-0.394823,-0.918228,0.031186,-0.056318,-0.078950,0.017581,-20.551817,-25.014492,-4.680634,,,,,,,
1504199268.751962,-1.656004,1.161790,0.798274,0.278149,-0.098714,0.135590,-0.396255,-0.917517,0.033846,0.015288,-0.029902,0.093992,-20.551817,-25.014492,-4.680634,,,,,,,
1504199268.761971,-1.664687,1.160627,0.806021,0.326924,-0.172582,0.078165,-0.397009,-0.917053,0.037385,0.046774,0.012787,0.109282,-20.776594,-25.015804,-4.531189,,,,,,,
1504199268.771981,-1.689178,1.161539,0.827812,0.360654,-0.239999,0.059137,-0.395143,-0.917417,0.046997,0.033525,0.006391,0.057647,-20.776594,-25.015804,-4.531189,,,,,,,
1504199268.781967,-1.700801,1.160276,0.837067,0.382103,-0.340374,0.090305,-0.395718,-0.916913,0.051737,0.009671,-0.034381,0.035269,-20.627272,-24.789974,-4.607513,,,,,,,
1504199268.791977,-1.713001,1.158760,0.845615,0.353262,-0.468025,0.106492,-0.396433,-0.916307,0.056758,0.008692,-0.059172,-0.002330,-20.627272,-24.789974,-4.607513,,,,,,,
1504199268.801987,-1.726175,1.157010,0.853808,0.351086,-0.592706,0.129123,-0.397235,-0.915605,0.062224,-0.012112,-0.053816,-0.021620,-20.926252,-24.792675,-3.933228,,,,,,,
1504199268.811996,-1.739874,1.155107,0.861937,0.369893,-0.634432,0.142038,-0.398062,-0.914838,0.067952,-0.016061,-0.050387,-0.006902,-20.926252,-24.792675,-3.933228,,,,,,,
1504199268.822006,-1.753852,1.153309,0.870855,0.398528,-0.547247,0.102440,-0.398690,-0.914111,0.073809,-0.004050,-0.043775,0.006498,-20.850126,-25.018078,-3.556335,,,,,,,
1504199268.832016,-1.768215,1.151963,0.880764,0.418017,-0.546285,0.046967,-0.398795,-0.913564,0.079769,0.046118,-0.012492,0.029912,-20.850126,-25.018078,-3.556335,,,,,,,
1504199268.842026,-1.781639,1.150221,0.888682,0.335781,-0.642656,0.122780,-0.399244,-0.912854,0.085447,0.107374,0.031629,0.077837,-21.224745,-24.945507,-3.182831,,,,,,,
1504199268.852035,-1.794916,1.148326,0.895782,0.320577,-0.678756,0.118548,-0.399760,-0.912079,0.091125,0.081813,0.031647,0.003785,-21.224745,-24.945507,-3.182831,,,,,,,
1504199268.862045,-1.806635,1.146930,0.902724,0.319434,-0.466617,0.045588,-0.399902,-0.911506,0.096101,0.010574,0.038978,-0.082841,-20.999495,-24.645840,-2.509521,,,,,,,
1504199268.872055,-1.816420,1.146355,0.910385,0.346483,-0.196105,-0.024223,-0.399452,-0.911269,0.100137,0.002830,0.012938,-0.003045,-20.999495,-24.645840,-2.509521,,,,,,,
1504199268.882065,-1.823565,1.146191,0.916876,0.263222,-0.074994,-0.036322,-0.398870,-0.911202,0.103025,0.020895,0.031029,0.106600,-21.073469,-25.096035,-2.581299,,,,,,,
1504199268.892074,-1.845860,1.145450,0.937399,0.162985,-0.055052,-0.008763,-0.397124,-0.910896,0.112075,0.032988,0.039543,0.077363,-21.073469,-25.096035,-2.581299,,,,,,,
1504199268.902084,-1.847819,1.144751,0.938427,0.020284,-0.105109,0.071133,-0.397517,-0.910607,0.113027,-0.011663,0.024056,-0.011816,-20.998549,-25.020855,-2.506683,,,,,,,
1504199268.912094,-1.845458,1.144169,0.934301,-0.209664,-0.150142,0.110308,-0.398292,-0.910366,0.112232,-0.009865,-0.004322,-0.084156,-20.998549,-25.020855,-2.506683,,,,,,,
1504199268.922104,-1.837523,1.144380,0.923480,-0.523804,-0.223186,0.085342,-0.398985,-0.910454,0.109018,0.013335,-0.063210,-0.208001,-20.924223,-24.795361,-2.583191,,,,,,,
1504199268.932114,-1.825288,1.145909,0.906389,-0.729548,-0.372743,0.024407,-0.398941,-0.911085,0.103777,0.051697,-0.108278,-0.292284,-20.924223,-24.795361,-2.583191,,,,,,,
1504199268.942123,-1.810542,1.147490,0.884105,-0.933493,-0.615160,0.095997,-0.399028,-0.911736,0.097541,0.140422,-0.204673,-0.389518,-21.074568,-24.795589,-2.808594,,,,,,,
1504199268.952133,-1.796972,1.147030,0.860687,-0.896952,-0.835220,0.332345,-0.400724,-0.911547,0.092212,0.110883,-0.207182,-0.337390,-21.074568,-24.795589,-2.808594,,,,,,,
1504199268.962143,-1.788706,1.143085,0.841027,-0.628689,-0.987996,0.637288,-0.404980,-0.909918,0.089673,-0.052189,-0.170985,-0.212842,-21.375242,-24.571789,-2.886017,,,,,,,
1504199268.972153,-1.786416,1.136048,0.828649,-0.267837,-0.837725,0.832983,-0.411429,-0.906976,0.090113,-0.242166,-0.104224,0.028402,-21.375242,-24.571789,-2.886017,,,,,,,
1504199268.982162,-1.784960,1.128277,0.821954,-0.065838,-0.283107,0.796064,-0.418435,-0.903676,0.091009,-0.329963,-0.018062,0.277826,-21.676146,-24.123425,-2.740082,,,,,,,
1504199268.992172,-1.780643,1.121360,0.818039,-0.032700,0.195180,0.693875,-0.424927,-0.900692,0.090502,-0.253295,0.065350,0.390867,-21.676146,-24.123425,-2.740082,,,,,,,
1504199269.002151,-1.770969,1.115988,0.811467,-0.215924,0.414212,0.558678,-0.430519,-0.898345,0.087348,-0.127236,0.039779,0.173486,-21.676023,-24.123577,-2.665100,,,,,,,
1504199269.012161,-1.758653,1.112265,0.802835,-0.309664,0.467364,0.399379,-0.434845,-0.896703,0.082663,-0.093399,-0.033427,-0.035437,-21.676023,-24.123577,-2.665100,,,,,,,
1504199269.022171,-1.747606,1.110261,0.795632,-0.245711,0.469174,0.200950,-0.437499,-0.895815,0.078171,-0.051240,-0.018400,-0.149719,-22.127043,-23.900005,-2.967926,,,,,,,
1504199269.032181,-1.738883,1.109698,0.791101,-0.158373,0.492051,0.053759,-0.438662,-0.895564,0.074435,0.040423,0.044368,-0.085651,-22.127043,-23.900005,-2.967926,,,,,,,
1504199269.042190,-1.734001,1.109753,0.790548,0.003520,0.413002,-0.016269,-0.438971,-0.895589,0.072285,0.117559,0.061360,0.018596,-22.278288,-23.674786,-3.420013,,,,,,,
1504199269.052200,-1.733759,1.109799,0.794211,0.207716,0.321825,-0.030698,-0.438948,-0.895609,0.072172,0.092635,0.044321,0.061419,-22.278288,-23.674786,-3.420013,,,,,,,
1504199269.062210,-1.738760,1.109228,0.802893,0.441952,0.279372,-0.000330,-0.439085,-0.895355,0.074452,0.053587,0.049667,0.110180,-21.901960,-23.973843,-3.041809,,,,,,,
1504199269.072220,-1.746385,1.108734,0.814148,0.516508,0.231923,-0.050285,-0.438940,-0.895135,0.077875,-0.014764,0.071786,0.153967,-21.901960,-23.973843,-3.041809,,,,,,,
1504199269.082229,-1.750454,1.108985,0.821104,0.180072,0.177170,-0.067850,-0.438399,-0.895247,0.079620,-0.028673,0.064528,0.147766,-22.352674,-23.825420,-3.269073,,,,,,,
1504199269.092239,-1.749354,1.109502,0.822760,0.107626,0.183107,-0.079728,-0.438031,-0.895477,0.079056,0.074261,0.034271,-0.027374,-22.352674,-23.825420,-3.269073,,,,,,,
1504199269.102249,-1.757509,1.110486,0.831412,0.438501,-0.142371,-0.198129,-0.436505,-0.895915,0.082462,0.025906,0.077937,-0.323840,-22.126249,-24.349560,-3.189545,,,,,,,
1504199269.112259,-1.769898,1.112146,0.840185,0.289617,-0.507668,-0.239372,-0.433991,-0.896651,0.087569,0.114060,0.089476,0.011064,-22.126249,-24.349560,-3.189545,,,,,,,
1504199269.122269,-1.779839,1.113598,0.844865,0.169078,-0.594128,-0.168980,-0.431825,-0.897293,0.091608,0.184526,0.065781,0.121999,-22.050459,-24.350262,-2.664337,,,,,,,
1504199269.132278,-1.790745,1.114892,0.851979,0.325514,-0.405693,-0.213872,-0.429668,-0.897863,0.096059,0.091487,-0.007654,-0.213277,-22.050459,-24.350262,-2.664337,,,,,,,
1504199269.142288,-1.801333,1.117226,0.860045,0.267140,-0.307055,-0.331561,-0.426585,-0.898888,0.100124,-0.005834,0.045266,-0.010646,-21.824598,-24.649410,-2.586517,,,,,,,
1504199269.152298,-1.803191,1.121048,0.859318,-0.293326,-0.225696,-0.350822,-0.423052,-0.900557,0.100124,0.008486,0.102888,0.205967,-21.824598,-24.649410,-2.586517,,,,,,,
1504199269.162308,-1.801805,1.124419,0.855829,-0.166993,-0.123453,-0.273930,-0.420233,-0.902017,0.098842,0.077642,-0.011496,-0.111720,-21.674452,-24.574184,-2.361725,,,,,,,
1504199269.172317,-1.806559,1.126301,0.860531,0.254864,-0.038537,-0.221046,-0.418107,-0.902828,0.100442,-0.081756,0.086986,-0.207147,-21.674452,-24.574184,-2.361725,,,,,,,
1504199269.182327,-1.815896,1.127251,0.872025,0.508107,0.149042,-0.210264,-0.416319,-0.903236,0.104133,-0.108599,0.125099,0.327492,-21.449110,-24.573620,-2.136200,,,,,,,
1504199269.192337,-1.826855,1.127625,0.886996,0.642440,0.281117,-0.192118,-0.414826,-0.903396,0.108604,-0.063095,0.030960,0.437249,-21.449110,-24.573620,-2.136200,,,,,,,
1504199269.202347,-1.837187,1.127946,0.902245,0.594986,0.342262,-0.206185,-0.413401,-0.903534,0.112807,-0.030233,0.014542,0.282105,-21.748579,-24.650417,-1.911346,,,,,,,
1504199269.212356,-1.845685,1.129123,0.913876,0.402856,0.168071,-0.255311,-0.411404,-0.904038,0.116028,-0.017871,0.029892,0.142945,-21.748579,-24.650417,-1.911346,,,,,,,
1504199269.222366,-1.852404,1.130994,0.921786,0.235223,0.006436,-0.275597,-0.408990,-0.904836,0.118319,0.032510,0.006398,-0.087771,-21.448210,-24.799068,-1.909485,,,,,,,
1504199269.232376,-1.858290,1.133245,0.927564,0.160934,-0.086709,-0.290505,-0.406332,-0.905792,0.120147,0.079077,-0.030060,-0.187209,-21.448210,-24.799068,-1.909485,,,,,,,
1504199269.242386,-1.864832,1.135677,0.933336,0.173269,-0.153929,-0.304241,-0.403428,-0.906820,0.122163,0.094712,-0.019084,-0.122529,-20.998091,-24.797192,-1.833374,,,,,,,
1504199269.252365,-1.873684,1.137581,0.940806,0.274989,-0.215550,-0.261260,-0.400682,-0.907620,0.125214,0.098848,0.014585,-0.024934,-20.998091,-24.797192,-1.833374,,,,,,,
1504199269.262375,-1.885132,1.138514,0.951358,0.433035,-0.166821,-0.210904,-0.398417,-0.908012,0.129531,0.022059,0.053016,0.060288,-21.071745,-25.247829,-1.680176,,,,,,,
1504199269.272385,-1.898365,1.138720,0.964554,0.532747,-0.095199,-0.193780,-0.396491,-0.908098,0.134732,-0.068826,0.038225,0.132373,-21.071745,-25.247829,-1.680176,,,,,,,
1504199269.282394,-1.909848,1.139269,0.977163,0.448597,0.028083,-0.237906,-0.394447,-0.908328,0.139110,-0.057747,0.000491,0.099904,-21.072111,-24.873577,-1.307983,,,,,,,
1504199269.292404,-1.916829,1.140541,0.986845,0.308774,0.275410,-0.258865,-0.392380,-0.908859,0.141468,-0.003189,-0.013977,0.021541,-21.072111,-24.873577,-1.307983,,,,,,,
1504199269.302414,-1.916523,1.144546,0.990858,-0.075647,0.488744,-0.494736,-0.388995,-0.910522,0.140114,0.042514,-0.014435,-0.098854,-20.695311,-25.547039,-1.226990,,,,,,,
1504199269.312424,-1.908214,1.152866,0.987438,-0.502689,0.517113,-0.824286,-0.382984,-0.913931,0.134364,0.148868,-0.041498,-0.282252,-20.695311,-25.547039,-1.226990,,,,,,,
1504199269.322433,-1.899192,1.164491,0.982600,-0.557693,0.409154,-1.093176,-0.374098,-0.918587,0.127467,0.249556,0.000237,-0.458553,-20.170271,-25.694241,-1.449585,,,,,,,
1504199269.332443,-1.897641,1.176178,0.984850,-0.176115,0.343170,-1.121219,-0.364103,-0.923143,0.123432,0.152342,0.039720,-0.324391,-20.170271,-25.694241,-1.449585,,,,,,,
1504199269.342453,-1.908362,1.184291,0.999674,0.414425,0.291171,-0.881006,-0.355680,-0.926232,0.124844,-0.012377,0.026818,0.076252,-19.569868,-25.991085,-1.670837,,,,,,,
1504199269.352463,-1.927381,1.188160,1.024359,0.814416,0.435730,-0.626526,-0.349880,-0.927684,0.130333,-0.260212,0.028346,0.475395,-19.569868,-25.991085,-1.670837,,,,,,,
1504199269.362472,-1.946018,1.190257,1.051409,0.861004,0.709121,-0.544737,-0.345580,-0.928464,0.136118,-0.426102,-0.041934,0.572241,-19.493818,-26.365902,-1.592834,,,,,,,
1504199269.372482,-1.959838,1.192436,1.075717,0.707994,0.927752,-0.534714,-0.341793,-0.929272,0.140113,-0.314289,-0.103611,0.337899,-19.493818,-26.365902,-1.592834,,,,,,,
1504199269.382492,-1.967438,1.195145,1.095347,0.508744,1.103072,-0.521492,-0.338395,-0.930269,0.141733,-0.160827,-0.068236,0.052862,-19.043058,-26.439632,-1.216156,,,,,,,
1504199269.392502,-1.968430,1.198469,1.108525,0.246187,1.116915,-0.481410,-0.335402,-0.931483,0.140871,-0.132112,-0.014730,-0.054430,-19.043058,-26.439632,-1.216156,,,,,,,
1504199269.402511,-1.963590,1.202101,1.114757,0.010406,1.036719,-0.398420,-0.332952,-0.932798,0.137950,-0.096720,-0.040438,-0.134777,-18.892988,-26.738064,-1.663544,,,,,,,
1504199269.412521,-1.954231,1.205210,1.115095,-0.134057,0.939724,-0.254400,-0.331537,-0.933914,0.133742,-0.072348,-0.086014,-0.155211,-18.892988,-26.738064,-1.663544,,,,,,,
1504199269.422531,-1.942944,1.207097,1.111765,-0.186363,0.772684,-0.088748,-0.331383,-0.934587,0.129351,-0.051338,-0.137083,-0.091783,-18.892988,-26.738064,-1.663544,,,,,,,
1504199269.432541,-1.931412,1.207659,1.106172,-0.207711,0.591453,0.052438,-0.332362,-0.934787,0.125335,-0.032217,-0.166577,-0.010498,-18.517836,-26.886074,-1.811493,,,,,,,
1504199269.442551,-1.920721,1.207074,1.100043,-0.175015,0.473863,0.154105,-0.334196,-0.934579,0.121963,-0.028368,-0.174537,0.022630,-18.744200,-26.661037,-2.338745,,,,,,,
1504199269.452560,-1.910862,1.205461,1.094067,-0.137497,0.420177,0.247129,-0.336803,-0.934004,0.119165,-0.026784,-0.165575,0.030265,-18.744200,-26.661037,-2.338745,,,,,,,
1504199269.462570,-1.901316,1.202792,1.087989,-0.113862,0.372986,0.352926,-0.340282,-0.933047,0.116753,-0.032490,-0.163617,-0.000344,-18.894712,-26.586269,-2.564667,,,,,,,
1504199269.472580,-1.890638,1.199032,1.080250,-0.169356,0.313643,0.474618,-0.344837,-0.931688,0.114215,-0.056210,-0.148695,-0.050967,-18.894712,-26.586269,-2.564667,,,,,,,
1504199269.482590,-1.878292,1.194083,1.070262,-0.207608,0.290364,0.619760,-0.350611,-0.929879,0.111343,-0.070867,-0.130958,-0.076202,-19.269941,-26.587658,-2.715607,,,,,,,
1504199269.492599,-1.865010,1.187804,1.059158,-0.202857,0.301906,0.755308,-0.357640,-0.927550,0.108368,-0.083156,-0.078339,-0.066742,-19.269941,-26.587658,-2.715607,,,,,,,
1504199269.502579,-1.852800,1.180638,1.048165,-0.189439,0.147225,0.812176,-0.365311,-0.924849,0.105840,-0.094390,-0.026292,-0.004537,-19.421217,-26.212872,-2.943817,,,,,,,
1504199269.512588,-1.845601,1.172556,1.040797,-0.031784,-0.102440,0.890810,-0.373247,-0.921745,0.105232,-0.031645,-0.011971,0.005378,-19.421217,-26.212872,-2.943817,,,,,,,
1504199269.522598,-1.849297,1.162297,1.035828,0.199930,-0.899476,1.074076,-0.381927,-0.917718,0.109205,0.023269,0.042092,0.075900,-20.021894,-25.990429,-3.022003,,,,,,,
1504199269.532608,-1.859152,1.150837,1.036475,0.393138,-0.881896,1.083986,-0.390890,-0.913106,0.115947,0.000738,-0.105953,-0.120082,-20.021894,-25.990429,-3.022003,,,,,,,
1504199269.542618,-1.869115,1.140242,1.041328,0.515828,-0.468190,0.892404,-0.398940,-0.908734,0.122672,0.024337,0.012799,0.130548,-20.546782,-25.768673,-2.574951,,,,,,,
1504199269.552627,-1.877525,1.132215,1.049759,0.589898,0.061128,0.579917,-0.404835,-0.905355,0.128221,0.071003,0.130209,0.327025,-20.546782,-25.768673,-2.574951,,,,,,,
1504199269.562637,-1.885962,1.126592,1.060700,0.626304,0.190023,0.332116,-0.408572,-0.902953,0.133208,0.120517,0.151702,0.190446,-20.995955,-25.697048,-1.901611,,,,,,,
1504199269.572647,-1.892321,1.123329,1.071167,0.489768,0.327766,0.118156,-0.410510,-0.901546,0.136734,0.137912,0.170055,0.067398,-20.995955,-25.697048,-1.901611,,,,,,,
1504199269.582657,-1.896206,1.122756,1.079120,0.301041,0.328502,-0.119136,-0.410466,-0.901298,0.138493,0.190312,0.158835,-0.057576,-21.146406,-25.472866,-1.828674,,,,,,,
1504199269.592666,-1.900663,1.125233,1.086146,0.190807,0.109126,-0.402869,-0.407731,-0.902368,0.139597,0.297257,0.141031,-0.104029,-21.146406,-25.472866,-1.828674,,,,,,,
