timestamp(unix),attitude_roll(radians),attitude_pitch(radians),attitude_yaw(radians),rotation_rate_x(radians/s),rotation_rate_y(radians/s),rotation_rate_z(radians/s),gravity_x(G),gravity_y(G),gravity_z(G),user_acc_x(G),user_acc_y(G),user_acc_z(G),magnetic_field_x(microteslas),magnetic_field_y(microteslas),magnetic_field_z(microteslas),latitude(degree),longitude(degree),altitude(meter),speed(m/s),course(degree),timestamp(unix),User Mark
1504198508.914793,0.005496,0.625501,-2.428293,0.010691,-0.018516,-0.097836,0.004455,-0.585503,-0.810658,0.035019,0.115075,-0.060451,18.165880,-17.289639,-29.991760,,,,,,,
1504198508.924803,0.006052,0.625447,-2.429566,-0.012807,-0.025775,-0.104268,0.004906,-0.585460,-0.810687,0.018806,0.099818,-0.070356,18.165880,-17.289639,-29.991760,,,,,,,
1504198508.934813,0.005953,0.624902,-2.430816,-0.071073,-0.105219,-0.101027,0.004828,-0.585018,-0.811006,0.015268,0.077297,-0.095656,18.315920,-17.214260,-29.841980,,,,,,,
1504198508.944822,0.004869,0.623742,-2.431988,-0.128426,-0.200659,-0.092419,0.003952,-0.584077,-0.811689,0.030121,0.063920,-0.110735,18.315920,-17.214260,-29.841980,,,,,,,
1504198508.954832,0.003949,0.619669,-2.433539,-0.163392,-0.279246,-0.060324,0.003215,-0.580765,-0.814065,0.040975,0.057511,-0.096931,18.015398,-17.140163,-30.068268,,,,,,,
1504198508.964842,0.001158,0.617971,-2.433913,-0.170187,-0.303739,-0.020799,0.000944,-0.579382,-0.815055,0.045214,0.050909,-0.074624,18.015398,-17.140163,-30.068268,,,,,,,
1504198508.974852,-0.001754,0.616417,-2.433842,-0.149857,-0.275171,0.013343,-0.001431,-0.578115,-0.815954,0.050869,0.055181,-0.049021,17.489687,-16.992077,-30.295685,,,,,,,
1504198508.984862,-0.004275,0.615170,-2.433500,-0.115339,-0.216866,0.031446,-0.003492,-0.577097,-0.816668,0.048886,0.070704,-0.031324,17.489687,-16.992077,-30.295685,,,,,,,
1504198508.994871,-0.004773,0.612328,-2.433871,-0.072122,-0.143682,0.034588,-0.003905,-0.574774,-0.818303,0.036040,0.077246,-0.021617,17.639803,-17.215801,-30.593658,,,,,,,
1504198509.004881,-0.005861,0.612036,-2.433502,-0.012811,-0.069570,0.027089,-0.004797,-0.574535,-0.818466,0.020590,0.080990,-0.008713,17.639803,-17.215801,-30.593658,,,,,,,
1504198509.014891,-0.006059,0.612270,-2.433372,0.032719,0.005737,0.003552,-0.004958,-0.574727,-0.818330,0.005950,0.085866,0.003908,17.489092,-16.841778,-30.446808,,,,,,,
1504198509.024901,-0.005344,0.612775,-2.433626,0.055803,0.070582,-0.028544,-0.004372,-0.575140,-0.818043,0.007622,0.088293,-0.007213,17.489092,-16.841778,-30.446808,,,,,,,
1504198509.034910,-0.004193,0.610924,-2.433982,0.048763,0.118597,-0.043587,-0.003434,-0.573625,-0.819111,0.007554,0.078919,-0.025707,17.714769,-17.290173,-30.742920,,,,,,,
1504198509.044920,-0.002527,0.611207,-2.434573,0.020131,0.135890,-0.051139,-0.002069,-0.573856,-0.818953,0.006403,0.073917,-0.046754,17.714769,-17.290173,-30.742920,,,,,,,
1504198509.054930,-0.000882,0.611313,-2.435263,0.007225,0.118953,-0.057536,-0.000722,-0.573943,-0.818895,0.019826,0.080077,-0.058806,17.639681,-17.215649,-30.668640,,,,,,,
1504198509.064940,0.000455,0.611308,-2.436037,-0.003748,0.076427,-0.064952,0.000373,-0.573939,-0.818898,0.027780,0.086696,-0.054622,17.639681,-17.215649,-30.668640,,,,,,,
1504198509.074950,0.002092,0.608346,-2.437282,0.004466,0.029465,-0.066978,0.001717,-0.571511,-0.820592,0.028541,0.086236,-0.061121,17.939806,-17.214458,-30.592926,,,,,,,
1504198509.084960,0.002595,0.608665,-2.438080,0.044749,-0.001771,-0.064718,0.002129,-0.571773,-0.820409,0.028724,0.087077,-0.054179,17.939806,-17.214458,-30.592926,,,,,,,
1504198509.094970,0.003059,0.609458,-2.438832,0.092808,0.007418,-0.059314,0.002508,-0.572423,-0.819954,0.026880,0.082998,-0.044410,17.789797,-17.215130,-30.593292,,,,,,,
1504198509.104980,0.003838,0.610751,-2.439510,0.141148,0.051769,-0.053972,0.003144,-0.573483,-0.819212,0.023147,0.079434,-0.042086,17.789797,-17.215130,-30.593292,,,,,,,
1504198509.114988,0.005385,0.609913,-2.440384,0.185151,0.087638,-0.055030,0.004414,-0.572796,-0.819686,0.018230,0.082501,-0.037553,18.090014,-17.214077,-30.442535,,,,,,,
1504198509.124998,0.006789,0.611886,-2.441156,0.200204,0.096049,-0.064625,0.005557,-0.574412,-0.818547,0.019132,0.090403,-0.044185,18.090014,-17.214077,-30.442535,,,,,,,
1504198509.135008,0.008118,0.613915,-2.442056,0.202229,0.075797,-0.075260,0.006636,-0.576072,-0.817372,0.022783,0.092170,-0.054820,18.165361,-17.438442,-30.590668,,,,,,,
1504198509.144987,0.009224,0.615968,-2.442999,0.206286,0.050188,-0.074140,0.007528,-0.577749,-0.816180,0.022867,0.094351,-0.058256,18.165361,-17.438442,-30.590668,,,,,,,
1504198509.154977,0.010350,0.614817,-2.444023,0.200721,0.031042,-0.066649,0.008455,-0.576809,-0.816835,0.019164,0.095257,-0.052519,18.089449,-16.989071,-30.444214,,,,,,,
1504198509.164987,0.011034,0.616711,-2.444871,0.187790,0.015165,-0.066643,0.009002,-0.578355,-0.815736,0.020509,0.098649,-0.054778,18.089449,-16.989071,-30.444214,,,,,,,
1504198509.174997,0.011953,0.615312,-2.445976,0.182344,0.002428,-0.073039,0.009761,-0.577214,-0.816535,0.020635,0.096028,-0.056802,18.165056,-17.363293,-30.666229,,,,,,,
1504198509.185005,0.012858,0.614294,-2.447226,0.189823,-0.002944,-0.091166,0.010507,-0.576382,-0.817113,0.017875,0.092297,-0.043498,18.165056,-17.363293,-30.666229,,,,,,,
1504198509.195015,0.014058,0.613687,-2.448821,0.200585,0.000187,-0.111437,0.011492,-0.575885,-0.817450,0.018888,0.091114,-0.030558,18.241610,-17.663998,-30.138763,,,,,,,
1504198509.205025,0.015418,0.613300,-2.450701,0.204902,-0.003020,-0.132776,0.012608,-0.575569,-0.817656,0.018810,0.088585,-0.026277,18.241610,-17.663998,-30.138763,,,,,,,
1504198509.215035,0.016928,0.613133,-2.452806,0.200563,-0.013626,-0.141307,0.013844,-0.575433,-0.817732,0.020976,0.077859,-0.030397,18.241533,-17.589153,-30.064331,,,,,,,
1504198509.225044,0.018542,0.613222,-2.454930,0.201590,-0.009374,-0.131710,0.015162,-0.575505,-0.817657,0.022924,0.066945,-0.032227,18.241533,-17.589153,-30.064331,,,,,,,
1504198509.235054,0.020316,0.613676,-2.456926,0.216638,0.016072,-0.117855,0.016608,-0.575877,-0.817368,0.022973,0.061808,-0.025451,18.166826,-17.664639,-29.988953,,,,,,,
1504198509.245064,0.022445,0.614559,-2.458811,0.240358,0.057432,-0.105082,0.018337,-0.576598,-0.816822,0.023320,0.057738,-0.018474,18.166826,-17.664639,-29.988953,,,,,,,
1504198509.255075,0.024925,0.615944,-2.460578,0.270519,0.100875,-0.096570,0.020342,-0.577729,-0.815975,0.021909,0.054673,-0.010548,18.241610,-17.663998,-30.138763,,,,,,,
1504198509.265084,0.027695,0.617797,-2.462250,0.297420,0.135820,-0.089115,0.022573,-0.579241,-0.814844,0.020594,0.050676,-0.005575,18.241610,-17.663998,-30.138763,,,,,,,
1504198509.275094,0.029858,0.620846,-2.463342,0.309276,0.158088,-0.077393,0.024282,-0.581724,-0.813024,0.020197,0.048597,-0.012339,18.317202,-17.813961,-29.987457,,,,,,,
1504198509.285104,0.032190,0.623881,-2.464373,0.301948,0.178391,-0.073172,0.026122,-0.584189,-0.811197,0.021471,0.050544,-0.025397,18.317202,-17.813961,-29.987457,,,,,,,
1504198509.295114,0.034676,0.626829,-2.465405,0.296716,0.191221,-0.073203,0.028078,-0.586580,-0.809405,0.028623,0.053987,-0.038511,18.692949,-17.888027,-29.610962,,,,,,,
1504198509.305123,0.038328,0.628172,-2.467102,0.298927,0.199747,-0.079623,0.031003,-0.587666,-0.808509,0.028109,0.056462,-0.035561,18.692949,-17.888027,-29.610962,,,,,,,
1504198509.315133,0.040991,0.631174,-2.468348,0.304226,0.187994,-0.091334,0.033084,-0.590093,-0.806657,0.034344,0.059804,-0.029646,18.468416,-17.889629,-29.311523,,,,,,,
1504198509.325143,0.043487,0.634137,-2.469684,0.299775,0.162460,-0.095566,0.035021,-0.592482,-0.804822,0.034452,0.054808,-0.030826,18.468416,-17.889629,-29.311523,,,,,,,
1504198509.335153,0.045613,0.636934,-2.471028,0.277034,0.121088,-0.094466,0.036657,-0.594734,-0.803087,0.029475,0.046806,-0.031722,18.694872,-18.339077,-29.082611,,,,,,,
1504198509.345163,0.048435,0.637982,-2.472978,0.217753,0.061899,-0.073120,0.038893,-0.595576,-0.802357,0.036776,0.032664,-0.046657,18.694872,-18.339077,-29.082611,,,,,,,
1504198509.355171,0.049160,0.639718,-2.473623,0.163918,0.026070,-0.032589,0.039423,-0.596969,-0.801295,0.044759,0.014450,-0.063863,18.919497,-18.188061,-29.083160,,,,,,,
1504198509.365181,0.049470,0.641071,-2.473747,0.127444,0.025265,0.005776,0.039632,-0.598054,-0.800475,0.051234,0.005860,-0.046555,18.919497,-18.188061,-29.083160,,,,,,,
1504198509.375191,0.049717,0.642159,-2.473396,0.101875,0.053142,0.043042,0.039797,-0.598926,-0.799815,0.066114,0.006274,-0.024449,18.919497,-18.188061,-29.083160,,,,,,,
1504198509.385201,0.053447,0.643203,-2.474616,0.079664,0.098094,0.074940,0.042747,-0.599762,-0.799036,0.069924,-0.002625,-0.007467,18.919497,-18.188061,-29.083160,,,,,,,
1504198509.395211,0.054073,0.643909,-2.473585,0.060675,0.132337,0.086588,0.043224,-0.600326,-0.798587,0.069035,-0.005326,0.007022,18.920031,-18.263515,-28.857605,,,,,,,
1504198509.405221,0.055124,0.644374,-2.472639,0.035424,0.168789,0.073671,0.044048,-0.600698,-0.798262,0.069126,0.021611,0.013945,18.920031,-18.263515,-28.857605,,,,,,,
1504198509.415231,0.056649,0.644457,-2.471970,-0.006853,0.202198,0.046854,0.045262,-0.600764,-0.798144,0.052119,0.051219,0.010211,18.695711,-18.489666,-28.781433,,,,,,,
1504198509.425241,0.059661,0.642570,-2.472286,-0.055429,0.237822,-0.001330,0.047734,-0.599255,-0.799134,0.021175,0.064099,-0.002960,18.695711,-18.489666,-28.781433,,,,,,,
1504198509.435250,0.062529,0.641587,-2.472783,-0.110346,0.270306,-0.062324,0.050062,-0.598468,-0.799581,0.002413,0.071811,-0.014323,18.771151,-18.714184,-28.854584,,,,,,,
1504198509.445260,0.066141,0.639986,-2.474043,-0.165321,0.294268,-0.125438,0.053013,-0.597184,-0.800350,-0.004338,0.074921,-0.029499,19.370592,-18.486492,-28.854797,,,,,,,
1504198509.455270,0.070230,0.637881,-2.475786,-0.209834,0.309589,-0.160767,0.056373,-0.595494,-0.801379,-0.008033,0.061727,-0.043561,19.370592,-18.486492,-28.854797,,,,,,,
1504198509.465280,0.073902,0.633837,-2.477299,-0.230184,0.304417,-0.157593,0.059493,-0.592240,-0.803562,-0.002654,0.041459,-0.046353,19.370592,-18.486492,-28.854797,,,,,,,
1504198509.475290,0.077621,0.631394,-2.478724,-0.234823,0.279910,-0.122333,0.062593,-0.590270,-0.804775,0.010191,0.027129,-0.049580,19.444948,-18.186306,-28.781830,,,,,,,
1504198509.485299,0.080668,0.629066,-2.479531,-0.223592,0.249925,-0.068891,0.065155,-0.588390,-0.805948,0.023193,0.022899,-0.060156,19.444948,-18.186306,-28.781830,,,,,,,
1504198509.495309,0.083077,0.627070,-2.479680,-0.185651,0.223984,-0.016477,0.067195,-0.586775,-0.806957,0.027501,0.023085,-0.066746,19.669298,-18.109692,-29.081879,,,,,,,
1504198509.505288,0.085600,0.623893,-2.479811,-0.123120,0.194671,0.015701,0.069389,-0.584199,-0.808639,0.025597,0.034425,-0.066025,19.669298,-18.109692,-29.081879,,,,,,,
1504198509.515298,0.087154,0.623271,-2.479417,-0.043343,0.171624,0.027621,0.070677,-0.583694,-0.808892,0.021334,0.051300,-0.058815,19.744417,-17.885250,-28.633331,,,,,,,
1504198509.525307,0.088341,0.623430,-2.479156,0.033093,0.117725,0.018242,0.071629,-0.583824,-0.808715,0.014308,0.062019,-0.056627,19.744417,-17.885250,-28.633331,,,,,,,
1504198509.535317,0.089122,0.624238,-2.479222,0.095624,0.052230,-0.002882,0.072219,-0.584479,-0.808189,0.019624,0.073645,-0.079965,19.744753,-17.885693,-28.408325,,,,,,,
1504198509.545326,0.089562,0.622496,-2.479729,0.161244,-0.017560,-0.016527,0.072665,-0.583065,-0.809170,0.025083,0.074611,-0.092854,19.744753,-17.885693,-28.408325,,,,,,,
1504198509.555336,0.089719,0.624781,-2.480245,0.262787,0.000793,-0.023856,0.072672,-0.584920,-0.807829,0.012685,0.078267,-0.075762,19.970171,-18.184246,-28.630524,,,,,,,
1504198509.565346,0.090086,0.627854,-2.481073,0.313945,-0.016661,-0.040815,0.072807,-0.587409,-0.806008,0.017891,0.060295,0.052071,19.819979,-18.109921,-28.631470,,,,,,,
1504198509.575356,0.090184,0.630266,-2.481533,0.211310,-0.016924,0.000637,0.072758,-0.589360,-0.804588,0.060741,-0.001705,0.031211,19.819979,-18.109921,-28.631470,,,,,,,
1504198509.585366,0.091694,0.632047,-2.482277,0.051655,-0.055085,0.077277,0.073877,-0.590798,-0.803430,0.051459,-0.055107,-0.030920,19.970430,-18.109829,-28.331116,,,,,,,
1504198509.595376,0.089764,0.631455,-2.480612,-0.108061,-0.106053,0.144336,0.072357,-0.590320,-0.803920,0.056778,-0.044675,-0.041417,19.970430,-18.109829,-28.331116,,,,,,,
1504198509.605386,0.087059,0.629882,-2.478233,-0.188500,-0.133138,0.184806,0.070263,-0.589050,-0.805036,0.054615,0.015868,-0.052187,19.895128,-18.035030,-28.406830,,,,,,,
1504198509.615396,0.084287,0.628073,-2.475785,-0.194841,-0.130946,0.176252,0.068121,-0.587587,-0.806289,0.043573,0.038011,-0.038270,19.895128,-18.035030,-28.406830,,,,,,,
1504198509.625405,0.083171,0.624736,-2.474454,-0.149362,-0.076911,0.123927,0.067384,-0.584883,-0.808314,0.028106,0.062392,-0.017248,19.595354,-18.260921,-28.630890,,,,,,,
1504198509.635415,0.082492,0.624022,-2.473560,-0.051242,0.003348,0.046036,0.066869,-0.584304,-0.808775,0.014826,0.068633,-0.015886,19.595354,-18.260921,-28.630890,,,,,,,
1504198509.645425,0.083014,0.624155,-2.473730,0.030610,0.051770,-0.029694,0.067285,-0.584412,-0.808663,0.004370,0.086853,0.022988,19.294603,-17.962276,-28.633881,,,,,,,
1504198509.655435,0.084334,0.624523,-2.474711,0.045023,0.083679,-0.087365,0.068335,-0.584711,-0.808359,0.004816,0.090723,0.031564,19.294603,-17.962276,-28.633881,,,,,,,
1504198509.665445,0.085959,0.622635,-2.476240,0.039602,0.053924,-0.123618,0.069742,-0.583178,-0.809345,0.008673,0.081560,-0.009090,19.369799,-18.036938,-28.633148,,,,,,,
1504198509.675453,0.087451,0.622615,-2.478216,0.000127,0.025526,-0.169534,0.070951,-0.583161,-0.809252,0.009387,0.075211,-0.020689,19.369799,-18.036938,-28.633148,,,,,,,
1504198509.685463,0.088765,0.622202,-2.480531,-0.033119,-0.012534,-0.196210,0.072036,-0.582826,-0.809398,0.039933,0.079652,-0.030965,19.594530,-17.886074,-28.558746,,,,,,,
1504198509.695473,0.090049,0.621524,-2.483067,-0.054424,-0.020863,-0.216513,0.073110,-0.582275,-0.809698,0.038813,0.074752,-0.032633,19.594530,-17.886074,-28.558746,,,,,,,
1504198509.705483,0.092627,0.618635,-2.486457,-0.073420,-0.004688,-0.237928,0.075353,-0.579924,-0.811179,0.027507,0.066923,-0.018259,19.819338,-17.810070,-28.558746,,,,,,,
1504198509.715492,0.094459,0.617483,-2.489365,-0.098762,0.021107,-0.249759,0.076902,-0.578985,-0.811703,0.022830,0.061148,-0.007602,19.819338,-17.810070,-28.558746,,,,,,,
1504198509.725502,0.096568,0.616091,-2.492366,-0.118828,0.041528,-0.258369,0.078691,-0.577850,-0.812341,0.014159,0.049361,-0.014045,20.043856,-17.658901,-28.634277,,,,,,,
1504198509.735512,0.098825,0.614595,-2.495408,-0.125142,0.051173,-0.260532,0.080609,-0.576628,-0.813021,0.015353,0.043180,-0.020262,20.043856,-17.658901,-28.634277,,,,,,,
1504198509.745522,0.101765,0.611591,-2.498812,-0.125192,0.050111,-0.256265,0.083175,-0.574171,-0.814500,0.019013,0.045789,-0.018523,20.118273,-17.433559,-28.635803,,,,,,,
1504198509.755532,0.103821,0.610149,-2.501653,-0.115750,0.039362,-0.241286,0.084935,-0.572990,-0.815150,0.019740,0.054191,-0.020147,20.118273,-17.433559,-28.635803,,,,,,,
1504198509.765542,0.105681,0.608898,-2.504329,-0.095612,0.030658,-0.228427,0.086527,-0.571964,-0.815703,0.019247,0.056491,-0.023088,20.117571,-17.283123,-28.861969,,,,,,,
1504198509.775552,0.107380,0.607845,-2.506999,-0.077637,0.010264,-0.228360,0.087977,-0.571100,-0.816153,0.011816,0.056955,-0.022989,20.117571,-17.283123,-28.861969,,,,,,,
1504198509.785562,0.108943,0.604691,-2.509910,-0.075676,-0.023826,-0.253919,0.089448,-0.568508,-0.817800,0.007751,0.064785,-0.026179,20.417559,-17.281765,-28.861206,,,,,,,
1504198509.795571,0.110076,0.603453,-2.513307,-0.099531,-0.103496,-0.305055,0.090452,-0.567489,-0.818398,0.009341,0.070510,-0.045707,20.417559,-17.281765,-28.861206,,,,,,,
1504198509.805581,0.110388,0.601775,-2.517298,-0.141869,-0.227767,-0.358279,0.090812,-0.566107,-0.819315,0.021707,0.069311,-0.070196,20.492495,-17.206585,-28.786560,,,,,,,
1504198509.815591,0.109477,0.599455,-2.521814,-0.205850,-0.388094,-0.408275,0.090208,-0.564192,-0.820701,0.024507,0.062407,-0.090692,20.492495,-17.206585,-28.786560,,,,,,,
1504198509.825601,0.107044,0.595186,-2.526695,-0.261671,-0.575156,-0.429393,0.088468,-0.560662,-0.823305,0.027530,0.054956,-0.102064,20.416246,-16.756771,-28.865173,,,,,,,
1504198509.835611,0.102826,0.591797,-2.531423,-0.308700,-0.714370,-0.421757,0.085189,-0.557853,-0.825556,0.021470,0.036415,-0.099615,20.416246,-16.756771,-28.865173,,,,,,,
1504198509.845619,0.097637,0.588102,-2.535854,-0.333860,-0.775994,-0.396075,0.081104,-0.554783,-0.828033,0.002667,0.009052,-0.079285,20.189974,-16.606579,-29.466858,,,,,,,
1504198509.855600,0.092219,0.584411,-2.539859,-0.332777,-0.749404,-0.356626,0.076805,-0.551709,-0.830493,0.013359,0.008526,-0.056592,20.189974,-16.606579,-29.466858,,,,,,,
1504198509.865608,0.087360,0.580941,-2.543507,-0.304490,-0.662289,-0.326843,0.072936,-0.548811,-0.832759,0.010393,0.011289,-0.037069,19.887972,-16.082027,-29.921509,,,,,,,
1504198509.875618,0.083354,0.577942,-2.546868,-0.264345,-0.561416,-0.299199,0.069735,-0.546301,-0.834681,0.014005,0.018545,-0.017126,19.887972,-16.082027,-29.921509,,,,,,,
1504198509.885628,0.080068,0.575450,-2.550107,-0.210462,-0.488344,-0.289628,0.067101,-0.544212,-0.836260,0.018211,0.029182,-0.012022,19.437716,-16.158459,-30.222076,,,,,,,
1504198509.895638,0.077349,0.573798,-2.553459,-0.117234,-0.441154,-0.294887,0.064897,-0.542826,-0.837334,0.017028,0.026590,-0.013450,19.437716,-16.158459,-30.222076,,,,,,,
1504198509.905648,0.075355,0.573110,-2.556920,-0.023799,-0.365199,-0.295926,0.063254,-0.542248,-0.837834,0.021905,0.016796,0.011082,19.361971,-15.858792,-30.224518,,,,,,,
1504198509.915658,0.075110,0.573552,-2.560877,0.051717,-0.262448,-0.297045,0.063031,-0.542619,-0.837611,0.017581,0.005372,0.032221,19.361971,-15.858792,-30.224518,,,,,,,
1504198509.925668,0.075271,0.574308,-2.564438,0.111261,-0.149992,-0.289668,0.063136,-0.543254,-0.837191,0.017705,0.001048,0.027026,19.362185,-16.083340,-30.447815,,,,,,,
1504198509.935678,0.076374,0.575476,-2.567907,0.147130,-0.060788,-0.279089,0.064010,-0.544234,-0.836488,0.023102,0.006820,0.024125,19.362185,-16.083340,-30.447815,,,,,,,
1504198509.945687,0.077992,0.576760,-2.571418,0.150716,-0.019248,-0.289830,0.065310,-0.545311,-0.835685,0.027876,0.014199,0.010612,19.287188,-16.083675,-30.448029,,,,,,,
1504198509.955697,0.081136,0.577378,-2.575981,0.143368,-0.024464,-0.323995,0.067909,-0.545829,-0.835140,0.025047,0.013389,-0.014011,19.287188,-16.083675,-30.448029,,,,,,,
1504198509.965707,0.082979,0.578356,-2.580102,0.118725,-0.046623,-0.338942,0.069404,-0.546648,-0.834481,0.051187,0.023257,-0.022452,19.436693,-15.932858,-30.523773,,,,,,,
1504198509.975717,0.084411,0.578939,-2.584309,0.075667,-0.099540,-0.347463,0.070572,-0.547136,-0.834063,0.052307,0.021059,-0.024137,19.436693,-15.932858,-30.523773,,,,,,,
1504198509.985727,0.085260,0.579061,-2.588485,0.030371,-0.158843,-0.345302,0.071274,-0.547238,-0.833937,0.038208,0.003827,-0.032503,19.211245,-15.709012,-30.451019,,,,,,,
1504198509.995736,0.086870,0.578424,-2.593330,-0.014901,-0.213867,-0.342086,0.072647,-0.546705,-0.834168,0.033295,-0.007174,-0.028747,19.211245,-15.709012,-30.451019,,,,,,,
1504198510.005746,0.086560,0.577718,-2.597251,-0.049433,-0.254089,-0.328198,0.072422,-0.546113,-0.834575,0.040448,-0.001204,-0.022465,19.286180,-15.633832,-30.376373,,,,,,,
1504198510.015756,0.085887,0.576735,-2.600822,-0.079520,-0.261333,-0.297283,0.071906,-0.545290,-0.835157,0.046395,0.015780,-0.009447,19.286180,-15.633832,-30.376373,,,,,,,
1504198510.025765,0.085119,0.575516,-2.603984,-0.107240,-0.240888,-0.268547,0.071321,-0.544268,-0.835874,0.043669,0.034716,0.011106,19.285341,-15.258969,-30.304169,,,,,,,
1504198510.035774,0.086783,0.572846,-2.607963,-0.152001,-0.207498,-0.228131,0.072838,-0.542026,-0.837199,0.049767,0.052249,0.022166,19.285341,-15.258969,-30.304169,,,,,,,
1504198510.045784,0.085754,0.570806,-2.609746,-0.200351,-0.196533,-0.142842,0.072071,-0.540311,-0.838374,0.060574,0.062375,0.017466,19.134813,-15.184201,-30.530151,,,,,,,
1504198510.055794,0.084041,0.568528,-2.610323,-0.225449,-0.203889,-0.042537,0.070737,-0.538393,-0.839720,0.034655,0.042055,-0.002107,19.134813,-15.184201,-30.530151,,,,,,,
1504198510.065804,0.081618,0.566281,-2.609800,-0.227060,-0.216755,0.046077,0.068801,-0.536497,-0.841093,0.019822,0.016523,-0.000307,19.584932,-15.406583,-30.827362,,,,,,,
1504198510.075814,0.079729,0.563930,-2.608953,-0.213512,-0.223349,0.119779,0.067313,-0.534512,-0.842476,0.025216,0.006771,-0.000786,19.584932,-15.406583,-30.827362,,,,,,,
1504198510.085824,0.076396,0.562031,-2.607007,-0.195611,-0.230992,0.155048,0.064581,-0.532906,-0.843706,0.020487,0.007271,-0.006910,19.134356,-15.183606,-30.830170,,,,,,,
1504198510.095834,0.072850,0.560460,-2.605023,-0.160564,-0.252591,0.153012,0.061650,-0.531576,-0.844764,0.015377,0.018499,-0.017937,19.134356,-15.183606,-30.830170,,,,,,,
1504198510.105844,0.069048,0.559364,-2.603193,-0.105374,-0.293531,0.145708,0.058478,-0.530647,-0.845573,0.018762,0.029503,-0.018608,18.908617,-14.884610,-30.832977,,,,,,,
1504198510.115853,0.065109,0.557733,-2.601564,-0.053597,-0.349373,0.154432,0.055203,-0.529264,-0.846659,0.013462,0.025465,-0.017919,18.908617,-14.884610,-30.832977,,,,,,,
1504198510.125863,0.059953,0.557471,-2.599510,-0.035128,-0.427337,0.177017,0.050845,-0.529042,-0.847071,-0.000201,0.022206,-0.024099,18.534227,-15.260846,-31.056061,,,,,,,
1504198510.135873,0.053921,0.557136,-2.597269,-0.050752,-0.503947,0.192069,0.045745,-0.528758,-0.847539,-0.008346,0.025782,-0.047297,18.534227,-15.260846,-31.056061,,,,,,,
1504198510.145883,0.047045,0.556170,-2.594750,-0.129264,-0.568325,0.214462,0.039940,-0.527937,-0.848344,0.004250,0.032851,-0.067489,18.608202,-15.034909,-31.357574,,,,,,,
1504198510.155876,0.039431,0.553641,-2.591985,-0.202093,-0.601827,0.214394,0.033532,-0.525788,-0.849955,-0.006081,0.034714,-0.101080,18.608202,-15.034909,-31.357574,,,,,,,
1504198510.165885,0.032147,0.551536,-2.589419,-0.222211,-0.584608,0.211126,0.027376,-0.523996,-0.851281,-0.001131,0.043832,-0.105079,17.707537,-15.038068,-31.809784,,,,,,,
1504198510.175895,0.025626,0.549390,-2.586873,-0.216130,-0.491950,0.209906,0.021853,-0.522167,-0.852563,0.004865,0.044963,-0.047766,17.707537,-15.038068,-31.809784,,,,,,,
1504198510.185905,0.020560,0.547592,-2.584477,-0.171096,-0.339925,0.194772,0.017552,-0.520633,-0.853600,-0.016133,0.032779,-0.009239,17.407305,-15.039121,-31.960541,,,,,,,
1504198510.195915,0.016723,0.546106,-2.582067,-0.121709,-0.180477,0.174297,0.014290,-0.519363,-0.854434,-0.012077,0.027420,0.036273,17.407305,-15.039121,-31.960541,,,,,,,
1504198510.205894,0.014855,0.545145,-2.580185,-0.091860,-0.063484,0.152795,0.012701,-0.518542,-0.854958,-0.000326,0.025119,0.057167,17.556215,-14.737988,-32.187439,,,,,,,
1504198510.215904,0.013746,0.544329,-2.578602,-0.085004,-0.021957,0.128183,0.011759,-0.517844,-0.855394,-0.000589,0.027732,0.045015,17.556215,-14.737988,-32.187439,,,,,,,
1504198510.225913,0.012778,0.543344,-2.577288,-0.107404,-0.034537,0.106818,0.010937,-0.517001,-0.855915,0.008701,0.044391,0.029819,17.181398,-14.814679,-32.187805,,,,,,,
1504198510.235923,0.012327,0.540452,-2.576519,-0.143663,-0.045927,0.081153,0.010570,-0.514524,-0.857411,0.013218,0.051221,0.003666,17.181398,-14.814679,-32.187805,,,,,,,
1504198510.245933,0.011392,0.538814,-2.575787,-0.171362,-0.057393,0.054440,0.009778,-0.513118,-0.858262,0.016193,0.052562,-0.008803,17.256624,-14.814633,-32.037598,,,,,,,
1504198510.255943,0.010446,0.537024,-2.575155,-0.183121,-0.061556,0.052293,0.008976,-0.511581,-0.859188,0.026379,0.047165,-0.014805,17.256624,-14.814633,-32.037598,,,,,,,
1504198510.265952,0.009325,0.535122,-2.574362,-0.195085,-0.077462,0.072581,0.008021,-0.509946,-0.860169,0.014104,0.029065,-0.011398,17.181597,-14.889676,-32.187225,,,,,,,
1504198510.275962,0.007830,0.532250,-2.573276,-0.217049,-0.128471,0.114259,0.006747,-0.507474,-0.861641,0.007688,0.014249,-0.014122,17.181597,-14.889676,-32.187225,,,,,,,
1504198510.285972,0.004931,0.529979,-2.571479,-0.227659,-0.223274,0.164576,0.004255,-0.505515,-0.862807,0.009616,0.015037,-0.033143,16.956148,-14.890088,-32.487823,,,,,,,
1504198510.295982,0.000811,0.527640,-2.569148,-0.232930,-0.318120,0.213834,0.000701,-0.503496,-0.863997,0.014604,0.026353,-0.045777,16.956148,-14.890088,-32.487823,,,,,,,
1504198510.305991,-0.004321,0.525294,-2.566373,-0.232580,-0.388484,0.244914,-0.003739,-0.501467,-0.865169,0.013962,0.030077,-0.045247,16.731218,-14.965955,-32.562775,,,,,,,
1504198510.316001,-0.009862,0.521596,-2.563548,-0.212481,-0.411023,0.239648,-0.008550,-0.498264,-0.866983,0.005270,0.033985,-0.048285,16.731218,-14.965955,-32.562775,,,,,,,
1504198510.326011,-0.015026,0.519706,-2.561001,-0.176885,-0.377192,0.216168,-0.013041,-0.496625,-0.867867,0.008143,0.042172,-0.039405,16.055620,-14.818692,-32.715607,,,,,,,
1504198510.336021,-0.019328,0.518288,-2.558858,-0.127021,-0.302971,0.177697,-0.016789,-0.495394,-0.868506,-0.002987,0.046022,-0.016290,16.055620,-14.818692,-32.715607,,,,,,,
1504198510.346031,-0.022525,0.517436,-2.557176,-0.066358,-0.213918,0.137083,-0.019574,-0.494653,-0.868870,-0.012896,0.057153,-0.001934,15.979616,-14.593427,-33.017456,,,,,,,
1504198510.356040,-0.025595,0.515143,-2.555555,-0.001424,-0.129162,0.083676,-0.022271,-0.492659,-0.869937,-0.016990,0.069960,0.007572,15.979616,-14.593427,-33.017456,,,,,,,
1504198510.366050,-0.026564,0.515522,-2.555189,0.050666,-0.063450,0.013201,-0.023109,-0.492989,-0.869728,-0.017082,0.088158,0.022698,16.055101,-14.743237,-32.941132,,,,,,,
1504198510.376060,-0.026524,0.516358,-2.555731,0.093106,-0.011499,-0.070074,-0.023063,-0.493716,-0.869317,-0.013009,0.100848,0.014810,16.055101,-14.743237,-32.941132,,,,,,,
1504198510.386070,-0.025635,0.517664,-2.557162,0.137553,0.029771,-0.144788,-0.022273,-0.494852,-0.868692,-0.007573,0.100840,0.009027,15.904268,-14.369061,-32.869354,,,,,,,
1504198510.396079,-0.024514,0.516938,-2.558929,0.161725,0.088226,-0.197154,-0.021309,-0.494220,-0.869075,-0.011696,0.084552,0.020061,15.904268,-14.369061,-32.869354,,,,,,,
1504198510.406089,-0.021968,0.518660,-2.561450,0.169779,0.141473,-0.229256,-0.019077,-0.495717,-0.868275,-0.020046,0.064168,0.025226,15.980211,-14.743726,-32.866333,,,,,,,
1504198510.416099,-0.018910,0.520400,-2.564146,0.171217,0.181964,-0.238931,-0.016405,-0.497227,-0.867465,-0.015226,0.052113,0.017307,15.980211,-14.743726,-32.866333,,,,,,,
1504198510.426109,-0.015473,0.522040,-2.566927,0.154387,0.208749,-0.244345,-0.013412,-0.498649,-0.866700,-0.014939,0.049080,0.023286,16.431231,-14.967298,-32.563538,,,,,,,
1504198510.436118,-0.012259,0.522261,-2.569595,0.122381,0.210076,-0.245471,-0.010625,-0.498841,-0.866628,-0.008037,0.050721,0.020193,16.431231,-14.967298,-32.563538,,,,,,,
1504198510.446128,-0.008853,0.523324,-2.572406,0.096652,0.195368,-0.244422,-0.007668,-0.499762,-0.866129,-0.008109,0.048789,0.003565,16.655321,-14.740842,-32.789673,,,,,,,
1504198510.456138,-0.005678,0.524121,-2.575162,0.069778,0.174271,-0.238027,-0.004916,-0.500452,-0.865750,-0.012052,0.036829,0.000638,16.655321,-14.740842,-32.789673,,,,,,,
1504198510.466148,-0.002799,0.524571,-2.577936,0.035381,0.140458,-0.241229,-0.002422,-0.500842,-0.865536,-0.015080,0.028292,0.000301,16.355928,-14.892484,-32.639282,,,,,,,
1504198510.476158,-0.000676,0.523727,-2.580608,-0.002282,0.097083,-0.248690,-0.000585,-0.500111,-0.865961,-0.009531,0.026265,-0.005560,16.355928,-14.892484,-32.639282,,,,,,,
1504198510.486167,0.001610,0.523430,-2.583562,-0.038675,0.077145,-0.257257,0.001394,-0.499854,-0.866109,-0.006537,0.030463,-0.006664,16.804979,-14.515470,-32.640991,,,,,,,
1504198510.496177,0.003959,0.522844,-2.586545,-0.062016,0.092258,-0.259459,0.003430,-0.499347,-0.866396,-0.009473,0.029940,0.003892,16.804979,-14.515470,-32.640991,,,,,,,
1504198510.506187,0.006765,0.522106,-2.589526,-0.075481,0.143517,-0.258506,0.005864,-0.498707,-0.866751,-0.015721,0.031910,0.010580,16.880022,-14.440427,-32.491364,,,,,,,
1504198510.516197,0.009228,0.520637,-2.592120,-0.082625,0.185125,-0.258590,0.008005,-0.497433,-0.867465,-0.019114,0.031537,0.021106,16.880022,-14.440427,-32.491364,,,,,,,
1504198510.526206,0.012708,0.519746,-2.595104,-0.088884,0.202227,-0.259698,0.011030,-0.496660,-0.867875,-0.023435,0.028566,0.018617,17.179934,-14.364224,-32.416199,,,,,,,
1504198510.536216,0.016227,0.518685,-2.598136,-0.107018,0.198122,-0.267194,0.014092,-0.495738,-0.868358,-0.023537,0.026515,0.017360,17.179934,-14.364224,-32.416199,,,,,,,
1504198510.546195,0.019668,0.517372,-2.601261,-0.129482,0.185529,-0.275750,0.017093,-0.494598,-0.868954,-0.021839,0.023849,0.004849,17.104418,-14.289121,-32.641937,,,,,,,
1504198510.556205,0.022225,0.515092,-2.604057,-0.150873,0.176112,-0.282174,0.019339,-0.492615,-0.870032,-0.019889,0.021149,-0.002389,17.104418,-14.289121,-32.641937,,,,,,,
1504198510.566215,0.025577,0.513471,-2.607343,-0.157252,0.172978,-0.291786,0.022277,-0.491204,-0.870760,-0.023238,0.023125,-0.005140,17.478090,-13.762433,-32.644958,,,,,,,
1504198510.576225,0.028974,0.511844,-2.610706,-0.155047,0.177230,-0.299262,0.025257,-0.489785,-0.871477,-0.021747,0.028940,-0.006147,17.478090,-13.762433,-32.644958,,,,,,,
1504198510.586234,0.031660,0.509257,-2.613756,-0.150684,0.184654,-0.308873,0.027638,-0.487529,-0.872669,-0.021061,0.028361,-0.004070,17.629030,-13.912503,-32.268463,,,,,,,
1504198510.596244,0.034667,0.506586,-2.616996,-0.148539,0.185700,-0.312073,0.030307,-0.485195,-0.873881,-0.015109,0.031490,-0.006079,17.629030,-13.912503,-32.268463,,,,,,,
1504198510.606254,0.037847,0.503877,-2.620299,-0.145319,0.189932,-0.312075,0.033136,-0.482824,-0.875090,-0.011896,0.031973,-0.010332,17.778612,-13.836530,-32.418640,,,,,,,
1504198510.616264,0.041155,0.501321,-2.623671,-0.151599,0.200646,-0.321712,0.036080,-0.480584,-0.876206,-0.012383,0.027780,-0.006118,17.778612,-13.836530,-32.418640,,,,,,,
1504198510.626273,0.045146,0.498500,-2.627390,-0.161039,0.216720,-0.331365,0.039638,-0.478108,-0.877406,0.000065,0.033223,-0.008977,17.778200,-13.536969,-32.195892,,,,,,,
1504198510.636283,0.049479,0.495469,-2.631335,-0.179054,0.223284,-0.348488,0.043511,-0.475444,-0.878669,0.004722,0.032161,-0.012765,17.778200,-13.536969,-32.195892,,,,,,,
1504198510.646293,0.053677,0.493478,-2.635338,-0.181026,0.232909,-0.365587,0.047250,-0.473692,-0.879422,0.006613,0.030836,-0.020968,18.077059,-13.309873,-32.571838,,,,,,,
1504198510.656303,0.058076,0.491553,-2.639442,-0.168033,0.251990,-0.373070,0.051171,-0.471996,-0.880114,0.011650,0.035457,-0.014737,18.077059,-13.309873,-32.571838,,,,,,,
1504198510.666313,0.062856,0.489834,-2.643650,-0.143140,0.290157,-0.382701,0.055429,-0.470479,-0.880668,0.001883,0.034826,-0.010628,18.601870,-13.008267,-32.197784,,,,,,,
1504198510.676322,0.068278,0.487156,-2.648121,-0.116076,0.328320,-0.403004,0.060288,-0.468115,-0.881609,0.000839,0.040838,-0.008742,18.601870,-13.008267,-32.197784,,,,,,,
1504198510.686332,0.073958,0.485821,-2.652902,-0.098670,0.346332,-0.441432,0.065341,-0.466935,-0.881874,0.005765,0.048462,-0.014808,18.676394,-12.857770,-32.273743,,,,,,,
1504198510.696342,0.079794,0.484648,-2.658112,-0.075086,0.337651,-0.477667,0.070530,-0.465897,-0.882024,0.015285,0.051636,-0.023433,18.676394,-12.857770,-32.273743,,,,,,,
1504198510.706352,0.085707,0.483638,-2.663648,-0.055816,0.331123,-0.501105,0.075784,-0.465003,-0.882060,0.021658,0.050223,-0.024160,19.050554,-12.481244,-32.200623,,,,,,,
1504198510.716361,0.092402,0.481428,-2.669705,-0.039959,0.312893,-0.504252,0.081783,-0.463045,-0.882553,0.022694,0.044420,-0.015075,19.050554,-12.481244,-32.200623,,,,,,,
1504198510.726371,0.098034,0.480626,-2.675306,-0.030489,0.298958,-0.499942,0.086788,-0.462334,-0.882448,0.019291,0.037240,-0.022841,19.349764,-12.030332,-31.978271,,,,,,,
1504198510.736381,0.103395,0.479843,-2.680839,-0.026470,0.271214,-0.494549,0.091555,-0.461640,-0.882330,0.023756,0.035462,-0.024408,19.349764,-12.030332,-31.978271,,,,,,,
1504198510.746391,0.108403,0.479005,-2.686366,-0.034195,0.237181,-0.497704,0.096015,-0.460897,-0.882245,0.029779,0.032201,-0.028736,19.650057,-12.104138,-31.901947,,,,,,,
1504198510.756400,0.113043,0.477990,-2.691945,-0.048356,0.196812,-0.504062,0.100160,-0.459995,-0.882254,0.041350,0.026386,-0.028772,19.650057,-12.104138,-31.901947,,,,,,,
1504198510.766410,0.117329,0.476797,-2.697482,-0.067828,0.166065,-0.499772,0.104004,-0.458936,-0.882361,0.054397,0.016248,-0.029916,19.874071,-11.802823,-32.053650,,,,,,,
1504198510.776420,0.121108,0.475293,-2.702784,-0.102404,0.123706,-0.480544,0.107421,-0.457599,-0.882646,0.063157,0.002048,-0.025374,19.874071,-11.802823,-32.053650,,,,,,,
1504198510.786430,0.124125,0.473384,-2.707736,-0.145754,0.056902,-0.452749,0.110192,-0.455901,-0.883183,0.071891,-0.008729,-0.029705,19.873400,-11.353421,-31.757019,,,,,,,
1504198510.796439,0.125962,0.471115,-2.712204,-0.184110,-0.045121,-0.413142,0.111943,-0.453880,-0.884003,0.089275,-0.012169,-0.034881,19.873400,-11.353421,-31.757019,,,,,,,
1504198510.806449,0.126466,0.468446,-2.716358,-0.225631,-0.164132,-0.407667,0.112541,-0.451500,-0.885145,0.077767,-0.030647,-0.043169,20.098360,-11.427106,-31.905914,,,,,,,
1504198510.816459,0.126377,0.465330,-2.720942,-0.267505,-0.227672,-0.456728,0.112640,-0.448717,-0.886547,0.056672,-0.057600,-0.051472,20.098360,-11.427106,-31.905914,,,,,,,
1504198510.826469,0.125931,0.461800,-2.725785,-0.302924,-0.267850,-0.479134,0.112442,-0.445560,-0.888163,0.100571,-0.045712,-0.041555,20.321932,-10.900952,-31.984314,,,,,,,
1504198510.836479,0.125458,0.458034,-2.730780,-0.316727,-0.268786,-0.494100,0.112231,-0.442185,-0.889874,0.100919,-0.003982,-0.043399,20.321932,-10.900952,-31.984314,,,,,,,
1504198510.846488,0.125165,0.454224,-2.735894,-0.322904,-0.247412,-0.504822,0.112180,-0.438766,-0.891572,0.095462,0.023009,-0.023101,20.320681,-10.450803,-32.062653,,,,,,,
1504198510.856498,0.125035,0.450287,-2.741017,-0.336683,-0.236641,-0.505932,0.112279,-0.435224,-0.893294,0.099590,0.053067,-0.005983,20.320681,-10.450803,-32.062653,,,,,,,
1504198510.866508,0.124763,0.446261,-2.745951,-0.344345,-0.246193,-0.482446,0.112253,-0.431596,-0.895055,0.103781,0.078401,-0.020777,20.319368,-10.150052,-32.439941,,,,,,,
1504198510.876518,0.123825,0.442388,-2.750261,-0.331169,-0.291126,-0.415097,0.111619,-0.428099,-0.896812,0.097396,0.086989,-0.031120,20.319368,-10.150052,-32.439941,,,,,,,
1504198510.886527,0.121918,0.438810,-2.753774,-0.309678,-0.359578,-0.341289,0.110094,-0.424863,-0.898538,0.067808,0.063596,-0.030447,20.093538,-10.000455,-32.741638,,,,,,,
1504198510.896507,0.118911,0.435664,-2.756627,-0.269053,-0.444160,-0.279160,0.107550,-0.422012,-0.900188,0.048471,0.019302,-0.040867,20.093538,-10.000455,-32.741638,,,,,,,
1504198510.906516,0.114797,0.433072,-2.758916,-0.221991,-0.527723,-0.222359,0.103970,-0.419661,-0.901706,0.042041,-0.029237,-0.054714,19.942751,-9.775830,-32.893707,,,,,,,
1504198510.916526,0.109548,0.431201,-2.760520,-0.152618,-0.610426,-0.145239,0.099321,-0.417963,-0.903019,0.035490,-0.055594,-0.058621,19.942751,-9.775830,-32.893707,,,,,,,
1504198510.926536,0.103310,0.430115,-2.761349,-0.079902,-0.676105,-0.069212,0.093733,-0.416975,-0.904072,0.023576,-0.063707,-0.061199,19.866777,-9.475873,-33.046112,,,,,,,
1504198510.936546,0.096203,0.429920,-2.761671,-0.010222,-0.738534,-0.020948,0.087314,-0.416798,-0.904796,0.012387,-0.052578,-0.058034,19.866777,-9.475873,-33.046112,,,,,,,
1504198510.946555,0.088220,0.430215,-2.761718,0.043394,-0.824247,0.001712,0.080077,-0.417066,-0.905342,0.024797,-0.028842,-0.057473,19.116549,-9.478940,-33.197968,,,,,,,
1504198510.956565,0.079207,0.431048,-2.761762,0.094827,-0.930165,0.001987,0.071887,-0.417823,-0.905680,0.019010,-0.013604,-0.065634,19.116549,-9.478940,-33.197968,,,,,,,
1504198510.966575,0.069012,0.432253,-2.761865,0.127963,-1.057242,0.000134,0.062614,-0.418918,-0.905863,0.017555,0.001819,-0.064688,18.740267,-9.329434,-33.800049,,,,,,,
1504198510.976585,0.057491,0.433610,-2.761839,0.136519,-1.178807,0.015307,0.052142,-0.420149,-0.905956,0.016050,0.000960,-0.060963,18.740267,-9.329434,-33.800049,,,,,,,
1504198510.986595,0.044952,0.434911,-2.761671,0.127265,-1.263986,0.022913,0.040753,-0.421329,-0.905992,0.008700,0.002354,-0.063231,17.990313,-9.482358,-34.025787,,,,,,,
1504198510.996604,0.032039,0.436095,-2.761462,0.114315,-1.280931,0.025055,0.029035,-0.422403,-0.905943,0.007021,0.010446,-0.054918,17.990313,-9.482358,-34.025787,,,,,,,
1504198511.006614,0.021386,0.436851,-2.762062,0.039906,-0.930660,-0.111251,0.019376,-0.423088,-0.905881,-0.000226,0.012749,-0.037478,17.090395,-9.785504,-34.475739,,,,,,,
1504198511.016624,0.023571,0.434388,-2.765296,-0.308675,0.424709,-0.355478,0.021380,-0.420855,-0.906876,-0.041186,0.037142,0.027039,17.090395,-9.785504,-34.475739,,,,,,,
1504198511.026634,0.032575,0.430755,-2.770621,-0.351123,0.619167,-0.518140,0.029594,-0.417557,-0.908169,-0.121925,0.094116,0.379436,17.164415,-9.484876,-34.627838,,,,,,,
1504198511.036643,0.035812,0.426701,-2.777037,-0.415248,-0.134628,-0.634336,0.032594,-0.413870,-0.909752,-0.188325,0.053427,0.414345,17.164415,-9.484876,-34.627838,,,,,,,
1504198511.046653,0.033460,0.420690,-2.784674,-0.625918,-0.659193,-0.736247,0.030537,-0.408390,-0.912297,-0.113606,0.028538,-0.051021,17.163591,-9.110013,-34.555634,,,,,,,
1504198511.056663,0.028782,0.413184,-2.792550,-0.746473,-0.793528,-0.739421,0.026356,-0.401527,-0.915468,-0.001713,0.098763,-0.194792,17.163591,-9.110013,-34.555634,,,,,,,
1504198511.066673,0.024921,0.405736,-2.800317,-0.704850,-0.653220,-0.731057,0.022896,-0.394695,-0.918527,-0.054817,0.078624,-0.079978,16.786791,-8.660810,-35.009949,,,,,,,
1504198511.076682,0.022440,0.399709,-2.808150,-0.539442,-0.529925,-0.734172,0.020670,-0.389151,-0.920942,-0.089762,0.044272,0.060987,16.786791,-8.660810,-35.009949,,,,,,,
1504198511.086692,0.020383,0.395621,-2.815891,-0.348309,-0.499550,-0.715749,0.018807,-0.385381,-0.922566,-0.049660,0.029852,0.084019,16.559298,-7.761518,-35.167236,,,,,,,
1504198511.096702,0.018501,0.393245,-2.823216,-0.190922,-0.412436,-0.685741,0.017088,-0.383188,-0.923512,-0.028609,-0.006659,-0.000529,16.559298,-7.761518,-35.167236,,,,,,,
1504198511.106712,0.017365,0.391874,-2.830271,-0.100302,-0.395111,-0.643986,0.016048,-0.381921,-0.924055,-0.025890,-0.015158,-0.062791,16.182802,-7.163190,-35.172668,,,,,,,
1504198511.116721,0.015048,0.392145,-2.836893,0.089525,-0.512869,-0.600753,0.013905,-0.382171,-0.923987,-0.020329,0.002716,-0.093988,16.182802,-7.163190,-35.172668,,,,,,,
1504198511.126731,0.011699,0.394639,-2.843128,0.310609,-0.595713,-0.565000,0.010799,-0.384475,-0.923072,-0.010067,-0.000626,-0.082970,16.183031,-7.387753,-35.395996,,,,,,,
1504198511.136741,0.007703,0.398761,-2.849120,0.438264,-0.630884,-0.545503,0.007098,-0.388277,-0.921515,-0.003299,0.000597,0.012900,16.183031,-7.387753,-35.395996,,,,,,,
1504198511.146751,0.003707,0.403448,-2.854968,0.476639,-0.625888,-0.530502,0.003409,-0.392591,-0.919707,0.020700,0.012007,-0.018053,15.507463,-7.165784,-35.399353,,,,,,,
1504198511.156750,-0.000585,0.408249,-2.860534,0.480504,-0.658982,-0.502684,-0.000537,-0.397003,-0.917817,0.040805,0.011551,-0.052932,15.507463,-7.165784,-35.399353,,,,,,,
1504198511.166759,-0.005600,0.412934,-2.865638,0.457387,-0.720642,-0.458852,-0.005130,-0.401298,-0.915933,0.045932,0.003120,-0.050620,15.507509,-7.315335,-35.623230,,,,,,,
1504198511.176769,-0.011439,0.417332,-2.870333,0.424604,-0.795001,-0.422486,-0.010457,-0.405323,-0.914114,0.043202,-0.003582,-0.032023,15.507509,-7.315335,-35.623230,,,,,,,
1504198511.186779,-0.018143,0.421271,-2.874606,0.381233,-0.859682,-0.387223,-0.016556,-0.408921,-0.912420,0.056504,0.003449,-0.022959,14.982882,-7.467694,-35.623383,,,,,,,
1504198511.196790,-0.025005,0.424669,-2.878567,0.315131,-0.837852,-0.361759,-0.022782,-0.412019,-0.910891,0.050827,-0.022735,-0.013121,14.982882,-7.467694,-35.623383,,,,,,,
1504198511.206799,-0.031622,0.427344,-2.882282,0.240575,-0.806361,-0.337393,-0.028773,-0.414455,-0.909615,0.045955,-0.044804,0.009087,14.458193,-7.769467,-35.922455,,,,,,,
1504198511.216809,-0.037633,0.429265,-2.885642,0.143920,-0.726752,-0.297140,-0.034210,-0.416203,-0.908628,0.044067,-0.056179,0.004423,14.458193,-7.769467,-35.922455,,,,,,,
1504198511.226819,-0.043621,0.429336,-2.888481,-0.064313,-0.715502,-0.243083,-0.039650,-0.416267,-0.908378,0.022606,-0.070824,0.010581,14.232973,-7.770169,-36.072998,,,,,,,
1504198511.236798,-0.049814,0.426957,-2.890751,-0.310054,-0.715681,-0.174127,-0.045324,-0.414103,-0.909101,0.025670,-0.060293,0.013257,14.232973,-7.770169,-36.072998,,,,,,,
1504198511.246808,-0.056778,0.421483,-2.892040,-0.631053,-0.760041,-0.061461,-0.051781,-0.409114,-0.911013,0.024316,-0.026860,0.035601,13.707247,-7.622083,-36.300446,,,,,,,
1504198511.256818,-0.064122,0.413705,-2.892667,-0.813797,-0.757536,0.002262,-0.058672,-0.402004,-0.913756,0.012819,0.016461,0.051268,13.707247,-7.622083,-36.300446,,,,,,,
1504198511.266827,-0.070831,0.404965,-2.893546,-0.890837,-0.676940,-0.038574,-0.065048,-0.393987,-0.916811,0.021209,-0.009562,0.108355,12.881060,-7.325192,-36.604706,,,,,,,
1504198511.276837,-0.075835,0.396388,-2.895466,-0.850900,-0.547163,-0.136935,-0.069887,-0.386088,-0.919811,0.013140,-0.049336,0.132457,12.881060,-7.325192,-36.604706,,,,,,,
1504198511.286847,-0.079533,0.388977,-2.898182,-0.721684,-0.443724,-0.208410,-0.073514,-0.379242,-0.922373,0.022321,-0.040848,0.068842,12.653643,-6.500745,-36.836456,,,,,,,
1504198511.296857,-0.081910,0.383441,-2.901229,-0.517856,-0.326021,-0.242421,-0.075877,-0.374114,-0.924274,0.030955,-0.041475,-0.001202,12.653643,-6.500745,-36.836456,,,,,,,
1504198511.306867,-0.083901,0.380238,-2.903980,-0.287309,-0.300238,-0.218584,-0.077817,-0.371141,-0.925310,0.055891,-0.042937,-0.019972,12.202028,-5.902616,-36.917084,,,,,,,
1504198511.316875,-0.083956,0.379150,-2.906914,-0.150262,-0.336572,-0.156380,-0.077901,-0.370131,-0.925708,0.076788,-0.041887,-0.048887,12.202028,-5.902616,-36.917084,,,,,,,
1504198511.326885,-0.088206,0.378247,-2.907975,-0.086004,-0.517281,-0.066288,-0.081865,-0.369292,-0.925700,0.091706,-0.026475,-0.087956,12.125673,-5.452664,-37.070648,,,,,,,
1504198511.336895,-0.095450,0.377506,-2.908028,-0.073762,-0.797729,0.024957,-0.088594,-0.368604,-0.925355,0.091661,-0.023288,-0.095000,12.125673,-5.452664,-37.070648,,,,,,,
1504198511.346905,-0.105566,0.376578,-2.907261,-0.087797,-1.040645,0.096877,-0.097986,-0.367740,-0.924752,0.086222,-0.020107,-0.098472,11.526140,-5.680203,-37.145447,,,,,,,
1504198511.356915,-0.118375,0.375891,-2.905891,-0.033561,-1.299017,0.146527,-0.109853,-0.367102,-0.923671,0.080342,-0.007776,-0.100651,11.526140,-5.680203,-37.145447,,,,,,,
1504198511.366925,-0.133483,0.376299,-2.904021,0.100343,-1.481301,0.174833,-0.123775,-0.367481,-0.921758,0.063854,0.022480,-0.108394,10.775911,-5.683286,-37.297333,,,,,,,
1504198511.376935,-0.150455,0.378322,-2.901465,0.278101,-1.642647,0.214920,-0.139289,-0.369361,-0.918788,0.056144,0.052238,-0.118840,10.775911,-5.683286,-37.297333,,,,,,,
1504198511.386945,-0.168342,0.381714,-2.898762,0.397537,-1.673429,0.177822,-0.155490,-0.372511,-0.914909,0.053027,0.037779,-0.135872,9.725878,-5.986951,-37.822662,,,,,,,
1504198511.396954,-0.184064,0.385753,-2.896784,0.439377,-1.437111,0.082479,-0.169577,-0.376257,-0.910865,0.041800,0.025930,-0.124643,9.725878,-5.986951,-37.822662,,,,,,,
1504198511.406964,-0.196923,0.390149,-2.895333,0.458784,-1.167636,0.045745,-0.180950,-0.380326,-0.906978,0.013866,0.011475,-0.026631,8.375597,-5.917874,-37.901520,,,,,,,
1504198511.416974,-0.207690,0.394625,-2.894066,0.460328,-0.991796,0.017686,-0.190352,-0.384462,-0.903302,0.018126,0.000108,0.063825,8.375597,-5.917874,-37.901520,,,,,,,
1504198511.426984,-0.217278,0.399122,-2.893488,0.448537,-0.919148,-0.068923,-0.198629,-0.388609,-0.899738,0.030660,-0.000932,0.079624,7.927370,-6.669751,-37.972015,,,,,,,
1504198511.436993,-0.226154,0.403809,-2.893881,0.451163,-0.909492,-0.152192,-0.206197,-0.392924,-0.896155,0.022496,0.003290,0.046134,7.927370,-6.669751,-37.972015,,,,,,,
1504198511.447003,-0.235119,0.408523,-2.894338,0.450067,-0.908426,-0.144724,-0.213788,-0.397254,-0.892460,0.014585,0.012595,-0.012219,7.177752,-6.823117,-37.972748,,,,,,,
1504198511.457013,-0.243920,0.413419,-2.894707,0.470548,-0.888338,-0.154331,-0.221162,-0.401743,-0.888645,0.014619,0.008997,-0.047314,7.177752,-6.823117,-37.972748,,,,,,,
1504198511.467022,-0.252146,0.418431,-2.895466,0.466950,-0.837105,-0.206730,-0.227959,-0.406327,-0.884835,0.028008,0.004823,-0.020591,6.353991,-7.276975,-37.896393,,,,,,,
1504198511.477032,-0.259133,0.423734,-2.896796,0.462527,-0.747517,-0.245323,-0.233580,-0.411167,-0.881125,0.020934,-0.010891,0.002433,6.353991,-7.276975,-37.896393,,,,,,,
1504198511.487041,-0.265509,0.428901,-2.898077,0.469536,-0.670852,-0.244378,-0.238633,-0.415871,-0.877556,0.031327,-0.031577,0.020974,5.904116,-7.503400,-38.195831,,,,,,,
1504198511.497051,-0.271304,0.434094,-2.899255,0.475224,-0.624017,-0.240181,-0.243132,-0.420589,-0.874066,0.053542,-0.049977,0.030103,5.904116,-7.503400,-38.195831,,,,,,,
1504198511.507061,-0.277609,0.439526,-2.900389,0.500286,-0.698804,-0.250680,-0.248009,-0.425510,-0.870306,0.064522,-0.064221,0.019293,5.530214,-7.805539,-37.969482,,,,,,,
1504198511.517071,-0.284581,0.444967,-2.901862,0.469774,-0.796557,-0.279381,-0.253417,-0.430428,-0.866321,0.064483,-0.066444,-0.035916,5.530214,-7.805539,-37.969482,,,,,,,
1504198511.527081,-0.292682,0.449935,-2.903541,0.417683,-0.909077,-0.283542,-0.259806,-0.434907,-0.862181,0.054270,-0.016905,-0.066728,5.155550,-8.031934,-38.118713,,,,,,,
1504198511.537091,-0.301810,0.454125,-2.905377,0.323953,-1.019133,-0.278174,-0.267121,-0.438676,-0.858027,0.032990,0.026277,-0.061178,5.155550,-8.031934,-38.118713,,,,,,,
1504198511.547101,-0.312002,0.457396,-2.907644,0.226927,-1.155778,-0.296246,-0.275411,-0.441613,-0.853889,0.014180,0.032006,-0.038689,4.706011,-8.258801,-38.193146,,,,,,,
1504198511.557111,-0.323155,0.459668,-2.910198,0.134393,-1.248794,-0.289839,-0.284597,-0.443651,-0.849811,-0.003336,0.057008,-0.046063,4.706011,-8.258801,-38.193146,,,,,,,
1504198511.567120,-0.335000,0.461299,-2.912930,0.056973,-1.320623,-0.284509,-0.294404,-0.445112,-0.845696,-0.010405,0.076139,-0.062645,4.106691,-8.486646,-38.117920,,,,,,,
1504198511.577130,-0.347070,0.462364,-2.916162,-0.013469,-1.345581,-0.319811,-0.304429,-0.446065,-0.841635,-0.015685,0.060384,-0.053064,4.106691,-8.486646,-38.117920,,,,,,,
1504198511.587109,-0.359048,0.463226,-2.919956,-0.040176,-1.367708,-0.348638,-0.314353,-0.446837,-0.837567,-0.031365,0.052885,-0.043887,2.906359,-8.491590,-38.345886,,,,,,,
1504198511.597119,-0.370879,0.463117,-2.923607,-0.067917,-1.351521,-0.324165,-0.324258,-0.446739,-0.833836,-0.017982,0.066413,-0.028851,2.906359,-8.491590,-38.345886,,,,,,,
1504198511.607129,-0.383532,0.463310,-2.926952,-0.101934,-1.438671,-0.274970,-0.334750,-0.446912,-0.829586,-0.020887,0.042890,-0.003407,1.706331,-8.347440,-38.124969,,,,,,,
1504198511.617139,-0.397088,0.462940,-2.929339,-0.135683,-1.454491,-0.165058,-0.346028,-0.446580,-0.825125,-0.011104,0.001985,-0.037836,1.706331,-8.347440,-38.124969,,,,,,,
1504198511.627147,-0.411794,0.462140,-2.931546,-0.166862,-1.602378,-0.140301,-0.358268,-0.445865,-0.820274,0.030356,-0.023740,-0.039071,0.956255,-8.500211,-38.425720,,,,,,,
1504198511.637157,-0.427256,0.460945,-2.933966,-0.183547,-1.692808,-0.148710,-0.371128,-0.444795,-0.815121,0.041522,-0.032348,-0.065128,0.956255,-8.500211,-38.425720,,,,,,,
1504198511.647167,-0.443665,0.460252,-2.936523,-0.129779,-1.795512,-0.183660,-0.384585,-0.444174,-0.809200,-0.017347,-0.014734,-0.056279,-0.169294,-8.280271,-38.430176,,,,,,,
1504198511.657177,-0.460636,0.460261,-2.938922,-0.062801,-1.828027,-0.187756,-0.398260,-0.444182,-0.802553,-0.018854,0.023009,-0.044447,-0.169294,-8.280271,-38.430176,,,,,,,
1504198511.667187,-0.478263,0.460996,-2.940842,0.011843,-1.837160,-0.194015,-0.412194,-0.444840,-0.795119,-0.025352,0.016007,-0.063661,-1.519743,-8.061490,-38.360199,,,,,,,
1504198511.677197,-0.495973,0.462204,-2.942775,0.028926,-1.843681,-0.206783,-0.425954,-0.445922,-0.787221,-0.007594,-0.018342,-0.060481,-1.519743,-8.061490,-38.360199,,,,,,,
1504198511.687207,-0.513803,0.463511,-2.943818,0.079841,-1.830332,-0.125595,-0.439635,-0.447091,-0.778993,-0.015840,-0.043662,-0.021346,-2.643599,-8.292295,-37.986267,,,,,,,
1504198511.697217,-0.531419,0.464636,-2.944421,0.066371,-1.766308,-0.103316,-0.453033,-0.448097,-0.770694,0.037903,-0.041008,0.012104,-2.643599,-8.292295,-37.986267,,,,,,,
1504198511.707227,-0.548137,0.465778,-2.944991,0.085283,-1.669494,-0.103454,-0.465587,-0.449118,-0.762576,0.062709,-0.030283,0.017062,-3.994154,-8.073361,-37.991302,,,,,,,
1504198511.717236,-0.563812,0.468027,-2.945483,0.196473,-1.557373,-0.183514,-0.476942,-0.451126,-0.754329,0.058271,-0.009994,0.058329,-3.994154,-8.073361,-37.991302,,,,,,,
1504198511.727246,-0.577702,0.472079,-2.946592,0.316986,-1.397293,-0.344765,-0.486371,-0.454739,-0.746094,0.056897,0.006161,0.043244,-5.118086,-8.453565,-37.916229,,,,,,,
1504198511.737256,-0.589722,0.478240,-2.948558,0.449211,-1.257526,-0.533713,-0.493736,-0.460217,-0.737852,-0.006585,0.013471,0.023557,-5.118086,-8.453565,-37.916229,,,,,,,
1504198511.747266,-0.599859,0.486120,-2.951647,0.506620,-1.126746,-0.711033,-0.499127,-0.467199,-0.729793,-0.049350,0.022802,0.022014,-5.866728,-8.907239,-37.764709,,,,,,,
1504198511.757275,-0.609245,0.493936,-2.955322,0.459113,-1.075189,-0.730418,-0.503850,-0.474095,-0.722059,-0.061366,0.062337,0.017255,-5.866728,-8.907239,-37.764709,,,,,,,
1504198511.767285,-0.618506,0.501417,-2.958630,0.438365,-1.081500,-0.645051,-0.508444,-0.480669,-0.714452,-0.030160,0.123674,0.021413,-6.690260,-9.361402,-37.538361,,,,,,,
1504198511.777295,-0.627469,0.507891,-2.961108,0.387273,-0.985310,-0.515086,-0.512989,-0.486336,-0.707333,0.025547,0.123238,0.020474,-6.690260,-9.361402,-37.538361,,,,,,,
1504198511.787305,-0.636435,0.513572,-2.962610,0.369915,-0.974589,-0.440417,-0.517661,-0.491291,-0.700471,0.018836,0.089039,0.052827,-7.064268,-9.663388,-37.387054,,,,,,,
1504198511.797315,-0.644485,0.518802,-2.964395,0.314227,-0.866506,-0.439637,-0.521732,-0.495841,-0.694218,0.005786,0.055914,0.065662,-7.064268,-9.663388,-37.387054,,,,,,,
1504198511.807323,-0.652847,0.523806,-2.966047,0.318577,-0.960363,-0.392498,-0.526004,-0.500180,-0.687851,-0.059567,0.039792,0.042923,-7.439390,-9.440671,-37.089661,,,,,,,
1504198511.817333,-0.663455,0.528548,-2.968664,0.194012,-1.254408,-0.489329,-0.531805,-0.504280,-0.680356,-0.069254,0.018364,0.010663,-7.439390,-9.440671,-37.089661,,,,,,,
1504198511.827343,-0.675763,0.532899,-2.972938,0.094079,-1.524167,-0.565879,-0.538761,-0.508032,-0.672042,-0.059735,-0.042719,-0.094377,-7.439390,-9.440671,-37.089661,,,,,,,
1504198511.837353,-0.691778,0.537484,-2.978163,0.034652,-1.954064,-0.677301,-0.547962,-0.511976,-0.661527,-0.015881,-0.015917,-0.112063,-8.262236,-10.119977,-36.786591,,,,,,,
1504198511.847363,-0.708733,0.541606,-2.985117,-0.087829,-2.083020,-0.713578,-0.557721,-0.515513,-0.650534,0.013882,-0.021643,-0.134668,-9.162458,-9.899472,-36.565521,,,,,,,
1504198511.857373,-0.727469,0.546422,-2.993373,-0.109173,-2.328812,-0.892505,-0.568153,-0.519634,-0.638109,0.024162,-0.074467,-0.120878,-9.162458,-9.899472,-36.565521,,,,,,,
1504198511.867383,-0.745824,0.551800,-3.002995,-0.174024,-2.383549,-1.027014,-0.577864,-0.524221,-0.625512,0.091582,-0.070643,-0.080237,-10.736204,-10.132443,-36.117706,,,,,,,
1504198511.877393,-0.763638,0.558390,-3.014583,-0.194548,-2.392785,-1.205289,-0.586513,-0.529821,-0.612611,0.141292,-0.094858,-0.024627,-10.736204,-10.132443,-36.117706,,,,,,,
1504198511.887402,-0.781647,0.566619,-3.028599,-0.262106,-2.599746,-1.468690,-0.594359,-0.536783,-0.598834,0.232603,-0.079077,-0.005307,-11.710630,-10.137570,-35.745117,,,,,,,
1504198511.897412,-0.801412,0.575835,-3.045639,-0.402806,-3.003259,-1.714792,-0.602498,-0.544535,-0.583504,0.319615,-0.054372,-0.021842,-11.710630,-10.137570,-35.745117,,,,,,,
1504198511.907422,-0.823818,0.585133,-3.065563,-0.676549,-3.429237,-1.847940,-0.611678,-0.552310,-0.566395,0.370284,-0.071866,-0.053753,-13.208097,-10.745664,-35.069305,,,,,,,
1504198511.917432,-0.847686,0.592610,-3.089673,-1.089525,-3.862690,-1.886319,-0.621908,-0.558528,-0.548887,0.328039,-0.093312,-0.068163,-13.208097,-10.745664,-35.069305,,,,,,,
1504198511.927441,-0.872626,0.597449,-3.117749,-1.547409,-4.134934,-1.861015,-0.633325,-0.562535,-0.531464,0.188882,-0.051784,-0.267440,-15.381498,-10.757535,-34.024628,,,,,,,
1504198511.937421,-0.898711,0.600589,3.134175,-1.881633,-4.443324,-1.872792,-0.645585,-0.565128,-0.513663,0.065919,-0.070797,-0.331674,-15.381498,-10.757535,-34.024628,,,,,,,
1504198511.947429,-0.925328,0.602315,3.099644,-2.234426,-4.664196,-1.871946,-0.658247,-0.566552,-0.495712,0.018614,-0.125709,-0.269837,-17.556196,-10.244397,-32.983917,,,,,,,
1504198511.957439,-0.952436,0.602374,3.061972,-2.583310,-4.900067,-1.823034,-0.671414,-0.566600,-0.477668,0.062131,-0.165028,-0.222023,-17.556196,-10.244397,-32.983917,,,,,,,
1504198511.967449,-0.979843,0.600930,3.021321,-2.919933,-5.074228,-1.780614,-0.684931,-0.565409,-0.459546,0.145334,-0.197439,-0.179294,-20.031599,-9.507474,-32.020630,,,,,,,
1504198511.977459,-1.006685,0.598815,2.977519,-3.211815,-5.167699,-1.808708,-0.698026,-0.563664,-0.441636,0.210600,-0.227123,-0.163711,-20.031599,-9.507474,-32.020630,,,,,,,
1504198511.987469,-1.030906,0.596565,2.930562,-3.474763,-4.981151,-1.841514,-0.709603,-0.561804,-0.425251,0.251809,-0.205499,-0.152858,-22.581022,-8.846921,-30.531952,,,,,,,
1504198511.997478,-1.049149,0.593825,2.882390,-3.614174,-4.347128,-1.753212,-0.718575,-0.559535,-0.413002,0.297630,-0.177113,-0.118965,-22.581022,-8.846921,-30.531952,,,,,,,
1504198512.007488,-1.060062,0.591038,2.833110,-3.701361,-3.659070,-1.781262,-0.724396,-0.557224,-0.405896,0.286866,-0.196591,-0.002200,-24.831953,-7.585019,-29.047058,,,,,,,
1504198512.017498,-1.063087,0.588657,2.783982,-3.663726,-2.815435,-1.772010,-0.726778,-0.555245,-0.404347,0.210955,-0.213524,0.079625,-24.831953,-7.585019,-29.047058,,,,,,,
1504198512.027508,-1.058884,0.586315,2.736192,-3.547930,-2.044948,-1.720865,-0.726205,-0.553295,-0.408034,0.157677,-0.203312,0.150877,-26.482878,-6.320416,-27.560669,,,,,,,
1504198512.037518,-1.049664,0.584433,2.690564,-3.342744,-1.464828,-1.714061,-0.723313,-0.551727,-0.415229,0.111482,-0.213456,0.222068,-26.482878,-6.320416,-27.560669,,,,,,,
1504198512.047528,-1.037601,0.583537,2.647107,-3.121062,-1.119227,-1.753780,-0.718677,-0.550979,-0.424175,0.091984,-0.202835,0.248623,-27.234449,-5.424680,-27.119232,,,,,,,
1504198512.057538,-1.025803,0.583940,2.605617,-2.888135,-1.126391,-1.832352,-0.713433,-0.551315,-0.432510,0.093194,-0.184448,0.271606,-27.234449,-5.424680,-27.119232,,,,,,,
1504198512.067548,-1.016682,0.585827,2.565829,-2.671833,-1.343345,-1.908447,-0.708572,-0.552889,-0.438451,0.122925,-0.163466,0.263708,-27.385099,-4.901258,-26.673584,,,,,,,
1504198512.077557,-1.011418,0.589339,2.528131,-2.410206,-1.632099,-1.971513,-0.704604,-0.555811,-0.441142,0.150894,-0.061727,0.229747,-27.385099,-4.901258,-26.673584,,,,,,,
1504198512.087567,-1.009138,0.594598,2.492520,-2.158203,-1.785413,-2.044457,-0.701113,-0.560176,-0.441184,0.183443,-0.005864,0.226737,-27.984678,-4.979245,-26.524506,,,,,,,
1504198512.097577,-1.007487,0.602128,2.458086,-1.959856,-1.761312,-2.198929,-0.696798,-0.566397,-0.440076,0.187582,0.040045,0.255917,-27.984678,-4.979245,-26.524506,,,,,,,
1504198512.107587,-1.004471,0.612119,2.424037,-1.784721,-1.587808,-2.380390,-0.690657,-0.574603,-0.439117,0.160231,0.095660,0.304138,-28.357649,-5.207883,-25.548706,,,,,,,
1504198512.117595,-0.998552,0.624272,2.390532,-1.596817,-1.257810,-2.518341,-0.682125,-0.584507,-0.439383,0.115566,0.097248,0.347327,-28.357649,-5.207883,-25.548706,,,,,,,
1504198512.127605,-0.988921,0.638372,2.357962,-1.374263,-0.852461,-2.637152,-0.670909,-0.595889,-0.441359,0.078288,0.093646,0.384154,-28.430387,-5.659711,-24.795502,,,,,,,
1504198512.137615,-0.975697,0.654261,2.326890,-1.114558,-0.441074,-2.707876,-0.657090,-0.608573,-0.444827,0.050645,0.117973,0.404590,-28.430387,-5.659711,-24.795502,,,,,,,
1504198512.147625,-0.958848,0.671612,2.297584,-0.853830,-0.010556,-2.739138,-0.640762,-0.622249,-0.449701,0.025466,0.145198,0.408472,-28.728239,-6.336667,-24.491150,,,,,,,
1504198512.157599,-0.938987,0.690078,2.269844,-0.618595,0.309336,-2.756373,-0.622325,-0.636598,-0.455473,0.009349,0.161424,0.418745,-28.728239,-6.336667,-24.491150,,,,,,,
1504198512.167608,-0.917616,0.709626,2.243333,-0.397521,0.453530,-2.782929,-0.602450,-0.651550,-0.461017,-0.004300,0.173736,0.411502,-28.575529,-7.685102,-24.930664,,,,,,,
1504198512.177619,-0.896177,0.730131,2.217768,-0.200115,0.444465,-2.801784,-0.581872,-0.666967,-0.465382,-0.021583,0.190359,0.376819,-28.575529,-7.685102,-24.930664,,,,,,,
1504198512.187629,-0.876631,0.751681,2.193276,0.017006,0.239155,-2.809585,-0.561486,-0.682868,-0.467360,-0.034370,0.197272,0.338347,-27.673002,-8.730908,-24.995575,,,,,,,
1504198512.197639,-0.860591,0.773976,2.170194,0.215929,-0.072622,-2.761725,-0.542237,-0.698984,-0.466262,-0.045119,0.173242,0.298232,-27.673002,-8.730908,-24.995575,,,,,,,
1504198512.207648,-0.849228,0.796672,2.149151,0.415170,-0.444132,-2.659321,-0.524857,-0.715033,-0.461793,-0.066513,0.123984,0.264390,-27.070265,-10.002606,-25.284515,,,,,,,
1504198512.217658,-0.843001,0.819334,2.130679,0.589686,-0.799520,-2.494012,-0.509739,-0.730691,-0.454155,-0.089306,0.110269,0.235069,-27.070265,-10.002606,-25.284515,,,,,,,
1504198512.227668,-0.842255,0.841380,2.115710,0.750430,-1.094136,-2.250914,-0.497258,-0.745564,-0.443700,-0.118877,0.105122,0.212499,-26.615812,-11.501493,-24.822144,,,,,,,
1504198512.237678,-0.846681,0.862395,2.104839,0.892460,-1.305518,-1.972770,-0.487371,-0.759403,-0.431019,-0.155314,0.083652,0.201160,-26.615812,-11.501493,-24.822144,,,,,,,
1504198512.247687,-0.855307,0.881593,2.098033,0.948765,-1.401156,-1.649081,-0.479977,-0.771753,-0.417157,-0.197254,0.107797,0.186963,-26.610060,-13.303144,-23.983612,,,,,,,
1504198512.257697,-0.868379,0.898420,2.095990,0.995885,-1.441311,-1.321236,-0.475408,-0.782344,-0.402399,-0.230540,0.153438,0.160135,-26.610060,-13.303144,-23.983612,,,,,,,
1504198512.267707,-0.883634,0.913186,2.097181,0.998809,-1.417147,-1.012794,-0.472509,-0.791455,-0.387730,-0.257304,0.152188,0.146168,-26.681410,-14.130582,-22.927582,,,,,,,
1504198512.277686,-0.900452,0.925713,2.101597,0.993082,-1.295905,-0.739763,-0.471156,-0.799050,-0.373539,-0.267400,0.123604,0.140141,-26.681410,-14.130582,-22.927582,,,,,,,
1504198512.287696,-0.918266,0.936194,2.108967,0.987684,-1.152257,-0.496658,-0.471055,-0.805307,-0.359983,-0.265060,0.103174,0.138959,-26.901777,-15.258985,-21.719666,,,,,,,
1504198512.297706,-0.936788,0.944686,2.118701,0.959764,-1.042491,-0.284487,-0.472114,-0.810313,-0.347132,-0.248223,0.088481,0.122432,-26.901777,-15.258985,-21.719666,,,,,,,
1504198512.307715,-0.956236,0.951242,2.130097,0.908859,-1.020953,-0.097817,-0.474425,-0.814137,-0.334815,-0.223924,0.093724,0.087791,-27.123304,-16.012096,-20.664551,,,,,,,
1504198512.317724,-0.976946,0.955860,2.142508,0.830771,-1.075894,0.068659,-0.478136,-0.816810,-0.322811,-0.197859,0.111152,0.040860,-27.123304,-16.012096,-20.664551,,,,,,,
1504198512.327734,-0.998564,0.958736,2.155060,0.739963,-1.153054,0.182850,-0.483025,-0.818466,-0.311127,-0.171485,0.116150,0.001618,-27.495558,-16.391171,-19.462677,,,,,,,
1504198512.337744,-1.020310,0.960390,2.167273,0.662683,-1.172727,0.243593,-0.488522,-0.819415,-0.299842,-0.144749,0.127658,-0.013650,-27.495558,-16.391171,-19.462677,,,,,,,
1504198512.347754,-1.041392,0.961435,2.179009,0.622447,-1.127651,0.254117,-0.493995,-0.820013,-0.289045,-0.121071,0.128500,-0.000964,-28.093962,-16.620220,-18.787415,,,,,,,
1504198512.357764,-1.061593,0.962393,2.190746,0.635202,-1.020096,0.221928,-0.499046,-0.820562,-0.278624,-0.099220,0.106023,0.032225,-28.093962,-16.620220,-18.787415,,,,,,,
1504198512.367774,-1.080326,0.964044,2.202399,0.672913,-0.881810,0.155570,-0.502982,-0.821504,-0.268589,-0.080849,0.081666,0.064991,-28.092344,-16.771862,-17.961304,,,,,,,
1504198512.377784,-1.098027,0.966528,2.214325,0.730861,-0.758591,0.072196,-0.505839,-0.822918,-0.258714,-0.063268,0.061184,0.085130,-28.092344,-16.771862,-17.961304,,,,,,,
1504198512.387794,-1.114959,0.969931,2.226572,0.786452,-0.665186,-0.014332,-0.507629,-0.824847,-0.248878,-0.048202,0.050616,0.087852,-28.690458,-17.076046,-17.210510,,,,,,,
1504198512.397803,-1.132182,0.974187,2.239491,0.844594,-0.649597,-0.095381,-0.508657,-0.827246,-0.238606,-0.031596,0.050070,0.073048,-28.690458,-17.076046,-17.210510,,,,,,,
1504198512.407813,-1.149950,0.979243,2.252635,0.887243,-0.701017,-0.172069,-0.508993,-0.830075,-0.227819,-0.017756,0.049542,0.045583,-28.763807,-17.153332,-16.235138,,,,,,,
1504198512.417823,-1.168462,0.984907,2.265996,0.911719,-0.750168,-0.238119,-0.508788,-0.833221,-0.216513,-0.012422,0.048644,0.016226,-28.763807,-17.153332,-16.235138,,,,,,,
1504198512.427833,-1.187531,0.991209,2.279612,0.942828,-0.776984,-0.314871,-0.507944,-0.836689,-0.204805,-0.019095,0.032429,0.004487,-28.761015,-17.904537,-15.629456,,,,,,,
1504198512.437841,-1.207529,0.997997,2.294004,0.980425,-0.783622,-0.376703,-0.506617,-0.840387,-0.192584,-0.025960,0.025049,0.006747,-28.761015,-17.904537,-15.629456,,,,,,,
1504198512.447851,-1.227573,1.005474,2.308866,1.020571,-0.739132,-0.439689,-0.504444,-0.844416,-0.180272,-0.034649,0.011622,0.006978,-28.759596,-17.981182,-14.803894,,,,,,,
1504198512.457861,-1.248128,1.013405,2.324971,1.084239,-0.672485,-0.477055,-0.501675,-0.848638,-0.167737,-0.046894,0.017202,0.011273,-28.759596,-17.981182,-14.803894,,,,,,,
1504198512.467871,-1.268755,1.021534,2.342342,1.126902,-0.553468,-0.497472,-0.498426,-0.852910,-0.155296,-0.060015,0.008870,0.011788,-28.830564,-18.958614,-13.746735,,,,,,,
1504198512.477881,-1.289539,1.029621,2.361093,1.170448,-0.446199,-0.499720,-0.494902,-0.857104,-0.142985,-0.072908,-0.002348,0.010005,-28.830564,-18.958614,-13.746735,,,,,,,
1504198512.487890,-1.310575,1.037490,2.381042,1.198662,-0.372928,-0.477385,-0.491268,-0.861131,-0.130804,-0.083073,-0.012297,-0.002237,-28.528502,-19.333752,-12.993195,,,,,,,
1504198512.497900,-1.332287,1.044768,2.402115,1.213524,-0.351789,-0.428296,-0.487888,-0.864808,-0.118624,-0.090816,-0.025924,-0.024870,-28.528502,-19.333752,-12.993195,,,,,,,
1504198512.507910,-1.355104,1.051213,2.424065,1.210747,-0.392326,-0.364185,-0.485014,-0.868026,-0.106267,-0.094897,-0.031953,-0.052699,-28.600554,-20.010738,-12.163269,,,,,,,
1504198512.517920,-1.379032,1.056647,2.446412,1.186276,-0.473182,-0.293636,-0.482779,-0.870712,-0.093732,-0.095956,-0.036423,-0.082675,-28.600554,-20.010738,-12.163269,,,,,,,
1504198512.527930,-1.403598,1.061044,2.468502,1.125587,-0.546283,-0.222097,-0.481156,-0.872866,-0.081206,-0.099746,-0.033903,-0.108064,-28.597990,-20.537395,-11.334320,,,,,,,
1504198512.537940,-1.427750,1.064417,2.489714,1.052619,-0.558536,-0.158157,-0.480060,-0.874506,-0.069143,-0.106503,-0.037863,-0.119867,-28.597990,-20.537395,-11.334320,,,,,,,
1504198512.547950,-1.450364,1.066809,2.509819,0.976119,-0.478053,-0.093320,-0.479423,-0.875664,-0.058019,-0.116173,-0.043052,-0.112193,-28.220747,-20.987194,-10.579987,,,,,,,
1504198512.557960,-1.470508,1.068295,2.528325,0.881815,-0.364375,-0.042449,-0.479199,-0.876380,-0.048220,-0.123904,-0.042717,-0.095396,-28.220747,-20.987194,-10.579987,,,,,,,
1504198512.567969,-1.487664,1.069248,2.544882,0.774995,-0.230323,-0.016185,-0.479124,-0.876839,-0.039922,-0.126055,-0.038856,-0.085169,-28.070173,-20.763027,-9.831329,,,,,,,
1504198512.577979,-1.501529,1.069875,2.559238,0.662955,-0.093012,-0.008082,-0.479082,-0.877141,-0.033238,-0.125166,-0.029644,-0.081081,-28.070173,-20.763027,-9.831329,,,,,,,
1504198512.587989,-1.512081,1.070347,2.571325,0.556227,0.034676,-0.010627,-0.478993,-0.877367,-0.028157,-0.119701,-0.034346,-0.072933,-28.143599,-21.213955,-9.528107,,,,,,,
1504198512.597999,-1.517791,1.069401,2.579636,0.471653,0.128105,-0.018412,-0.479975,-0.876913,-0.025465,-0.108160,-0.053843,-0.063707,-28.143599,-21.213955,-9.528107,,,,,,,
1504198512.608007,-1.523614,1.069916,2.588193,0.393182,0.177787,-0.035714,-0.479664,-0.877160,-0.022649,-0.092434,-0.076499,-0.055888,-28.442808,-21.216351,-9.003815,,,,,,,
1504198512.618017,-1.527989,1.070493,2.595346,0.330382,0.191100,-0.044386,-0.479252,-0.877437,-0.020528,-0.077083,-0.091313,-0.052973,-28.442808,-21.216351,-9.003815,,,,,,,
1504198512.627996,-1.531500,1.071094,2.601348,0.276882,0.169168,-0.048709,-0.478794,-0.877725,-0.018825,-0.065853,-0.099432,-0.050359,-28.066603,-21.739513,-9.073975,,,,,,,
1504198512.638006,-1.534490,1.071653,2.606443,0.238206,0.138579,-0.044453,-0.478358,-0.877993,-0.017375,-0.057332,-0.096021,-0.048665,-28.066603,-21.739513,-9.073975,,,,,,,
1504198512.648016,-1.537218,1.072086,2.610822,0.201601,0.104770,-0.032715,-0.478024,-0.878200,-0.016057,-0.055439,-0.088063,-0.041133,-27.991529,-21.589779,-8.774902,,,,,,,
1504198512.658026,-1.539479,1.072385,2.614508,0.171599,0.095415,-0.022077,-0.477796,-0.878343,-0.014968,-0.057482,-0.081740,-0.028458,-27.991529,-21.589779,-8.774902,,,,,,,
1504198512.668036,-1.541297,1.072687,2.617829,0.155797,0.117928,-0.026413,-0.477557,-0.878488,-0.014092,-0.060818,-0.080497,-0.009193,-28.065886,-21.889965,-8.847839,,,,,,,
1504198512.678046,-1.542208,1.073118,2.620891,0.146933,0.199005,-0.044717,-0.477192,-0.878693,-0.013646,-0.061718,-0.089645,0.010853,-28.065886,-21.889965,-8.847839,,,,,,,
1504198512.688056,-1.542508,1.073766,2.624182,0.165810,0.278791,-0.065106,-0.476626,-0.879003,-0.013487,-0.058210,-0.102397,0.039488,-28.290205,-22.116131,-8.771698,,,,,,,
1504198512.698066,-1.542598,1.074570,2.627918,0.185473,0.328724,-0.076901,-0.475921,-0.879386,-0.013424,-0.052552,-0.117685,0.055218,-28.290205,-22.116131,-8.771698,,,,,,,
1504198512.708076,-1.543055,1.075396,2.632097,0.206685,0.313630,-0.075771,-0.475201,-0.879778,-0.013186,-0.044711,-0.131239,0.052569,-27.990126,-22.189632,-8.845398,,,,,,,
1504198512.718085,-1.544531,1.076042,2.636765,0.227329,0.242039,-0.051058,-0.474652,-0.880085,-0.012470,-0.034519,-0.128459,0.036029,-27.990126,-22.189632,-8.845398,,,,,,,
1504198512.728095,-1.547375,1.076392,2.641784,0.242254,0.125735,-0.020940,-0.474377,-0.880251,-0.011112,-0.026416,-0.114454,0.016316,-27.990431,-22.114483,-8.920990,,,,,,,
1504198512.738105,-1.551704,1.076392,2.647124,0.256091,0.009435,0.013446,-0.474421,-0.880252,-0.009059,-0.019369,-0.088605,-0.000478,-27.990431,-22.114483,-8.920990,,,,,,,
1504198512.748115,-1.556982,1.076074,2.652500,0.253162,-0.072621,0.041338,-0.474742,-0.880101,-0.006559,-0.014974,-0.061946,-0.009799,-27.914640,-22.339443,-8.769073,,,,,,,
1504198512.758124,-1.562717,1.075629,2.657816,0.250679,-0.110971,0.049940,-0.475164,-0.879889,-0.003839,-0.014048,-0.051584,-0.007636,-27.914640,-22.339443,-8.769073,,,,,,,
1504198512.768134,-1.568383,1.075089,2.663043,0.245381,-0.102409,0.056321,-0.475653,-0.879632,-0.001148,-0.020120,-0.047095,-0.000821,-28.139311,-22.340908,-8.544647,,,,,,,
1504198512.778144,-1.575206,1.074415,2.669492,0.239185,-0.070405,0.065862,-0.476242,-0.879312,0.002100,-0.024353,-0.044913,0.007193,-28.139311,-22.340908,-8.544647,,,,,,,
1504198512.788154,-1.580134,1.073649,2.674472,0.236079,-0.051211,0.077564,-0.476899,-0.878947,0.004453,-0.023452,-0.042684,0.009036,-28.139235,-22.415752,-8.619080,,,,,,,
1504198512.798164,-1.584947,1.072734,2.679252,0.224141,-0.067112,0.092515,-0.477676,-0.878510,0.006760,-0.018021,-0.029434,0.002304,-28.139235,-22.415752,-8.619080,,,,,,,
1504198512.808172,-1.589724,1.071641,2.683484,0.195900,-0.119112,0.109636,-0.478599,-0.877987,0.009060,-0.006768,-0.009586,-0.012432,-28.288740,-22.342327,-8.170044,,,,,,,
1504198512.818182,-1.590570,1.070174,2.683615,0.168725,-0.179616,0.113962,-0.479878,-0.877284,0.009490,0.006413,0.016612,-0.026153,-28.288740,-22.342327,-8.170044,,,,,,,
1504198512.828192,-1.590736,1.068774,2.682529,0.136382,-0.229402,0.102248,-0.481103,-0.876611,0.009594,0.018228,0.038965,-0.031765,-28.138594,-22.267101,-7.945221,,,,,,,
1504198512.838202,-1.592060,1.068073,2.682194,0.112067,-0.229145,0.058438,-0.481705,-0.876274,0.010244,0.031280,0.055000,-0.023840,-28.138594,-22.267101,-7.945221,,,,,,,
1504198512.848212,-1.595825,1.068233,2.684304,0.106371,-0.181081,-0.005701,-0.481523,-0.876351,0.012054,0.041643,0.066124,-0.003937,-28.213362,-22.267742,-7.795410,,,,,,,
1504198512.858222,-1.602319,1.069847,2.689283,0.095591,-0.120172,-0.099757,-0.480020,-0.877127,0.015137,0.049982,0.063895,0.020935,-28.213362,-22.267742,-7.795410,,,,,,,
1504198512.868232,-1.609988,1.072917,2.695983,0.108440,-0.044540,-0.201269,-0.477197,-0.878597,0.018712,0.058694,0.065395,0.034603,-28.512724,-22.568935,-7.868866,,,,,,,
1504198512.878242,-1.612492,1.075566,2.698942,0.136140,0.026722,-0.293143,-0.474821,-0.879859,0.019809,0.067564,0.072715,0.047116,-28.512724,-22.568935,-7.868866,,,,,,,
1504198512.888251,-1.615178,1.079200,2.702513,0.159226,0.047951,-0.395611,-0.471569,-0.881580,0.020943,0.078884,0.086460,0.053184,-28.062315,-22.642208,-7.717194,,,,,,,
1504198512.898261,-1.618809,1.083814,2.706956,0.197871,0.016831,-0.492623,-0.467422,-0.883749,0.022459,0.092467,0.106985,0.046465,-28.062315,-22.642208,-7.717194,,,,,,,
1504198512.908271,-1.623784,1.089340,2.712333,0.228877,-0.035538,-0.589610,-0.462421,-0.886321,0.024526,0.104449,0.116439,0.038234,-27.911406,-22.866985,-7.490112,,,,,,,
1504198512.918281,-1.629865,1.095876,2.718325,0.241795,-0.085620,-0.693038,-0.456470,-0.889329,0.026995,0.109684,0.123460,0.040129,-27.911406,-22.866985,-7.490112,,,,,,,
1504198512.928290,-1.637126,1.103436,2.725224,0.276189,-0.119893,-0.798590,-0.449541,-0.892761,0.029862,0.107820,0.144271,0.047897,-27.760649,-23.166317,-7.487488,,,,,,,
1504198512.938299,-1.645925,1.111900,2.733601,0.324561,-0.134045,-0.893480,-0.441709,-0.896542,0.033248,0.101316,0.144284,0.066728,-27.760649,-23.166317,-7.487488,,,,,,,
1504198512.948309,-1.656304,1.121254,2.743520,0.370785,-0.151375,-0.990503,-0.432966,-0.900646,0.037112,0.097806,0.129848,0.081388,-27.533918,-23.765606,-7.332428,,,,,,,
1504198512.958319,-1.669109,1.131447,2.755607,0.447638,-0.206255,-1.085272,-0.423296,-0.905029,0.041750,0.097506,0.130767,0.085630,-27.533918,-23.765606,-7.332428,,,,,,,
1504198512.968329,-1.685693,1.142302,2.770933,0.548739,-0.289054,-1.166074,-0.412762,-0.909593,0.047635,0.096523,0.131654,0.081973,-27.082685,-23.989483,-6.879639,,,,,,,
1504198512.978308,-1.706025,1.153580,2.789255,0.620817,-0.385490,-1.225553,-0.401517,-0.914221,0.054630,0.088254,0.127920,0.079434,-27.082685,-23.989483,-6.879639,,,,,,,
1504198512.988318,-1.729743,1.165188,2.810350,0.679292,-0.449843,-1.287248,-0.389604,-0.918862,0.062453,0.079485,0.125634,0.078553,-26.254560,-24.961666,-6.420288,,,,,,,
1504198512.998327,-1.756709,1.177066,2.834673,0.743582,-0.451379,-1.344773,-0.377025,-0.923484,0.070913,0.066540,0.133979,0.084208,-26.254560,-24.961666,-6.420288,,,,,,,
1504198513.008337,-1.786413,1.188998,2.862495,0.807405,-0.368743,-1.387504,-0.363963,-0.927996,0.079715,0.043666,0.131914,0.101620,-25.802275,-25.560696,-5.889648,,,,,,,
1504198513.018348,-1.818363,1.200764,2.893875,0.865082,-0.243451,-1.413243,-0.350620,-0.932316,0.088620,0.023029,0.112217,0.121509,-25.802275,-25.560696,-5.889648,,,,,,,
1504198513.028358,-1.853118,1.212015,2.929149,0.936112,-0.166248,-1.412189,-0.337233,-0.936325,0.097821,0.012495,0.112549,0.127735,-24.898207,-26.683300,-5.053986,,,,,,,
1504198513.038367,-1.891869,1.222379,2.968318,1.004823,-0.227584,-1.382074,-0.323964,-0.939914,0.107744,0.012334,0.128177,0.103041,-24.898207,-26.683300,-5.053986,,,,,,,
1504198513.048377,-1.935521,1.231643,3.010792,1.042583,-0.417613,-1.342180,-0.310805,-0.943037,0.118667,0.021010,0.132169,0.055145,-24.296705,-27.056347,-4.674683,,,,,,,
1504198513.058387,-1.983453,1.239793,3.055621,1.060132,-0.600017,-1.302334,-0.297712,-0.945717,0.130336,0.025800,0.110390,0.006627,-24.296705,-27.056347,-4.674683,,,,,,,
1504198513.068397,-2.034334,1.246841,3.102457,1.062680,-0.659748,-1.267000,-0.284728,-0.947984,0.142325,0.016463,0.066499,-0.001212,-23.393217,-27.729702,-3.467346,,,,,,,
1504198513.078406,-2.086158,1.252827,-3.132643,1.054554,-0.595798,-1.231888,-0.272031,-0.949872,0.154084,-0.008456,0.027997,0.026001,-23.393217,-27.729702,-3.467346,,,,,,,
1504198513.088416,-2.137307,1.257747,-3.084034,1.034082,-0.458216,-1.185201,-0.259851,-0.951399,0.165280,-0.036688,0.010832,0.056736,-22.640242,-28.328274,-2.485992,,,,,,,
1504198513.098426,-2.186763,1.261483,-3.035819,1.010264,-0.322764,-1.112897,-0.248459,-0.952543,0.175869,-0.057601,0.032972,0.069233,-22.640242,-28.328274,-2.485992,,,,,,,
1504198513.108436,-2.234034,1.263817,-2.988781,0.983979,-0.220340,-1.026663,-0.238119,-0.953251,0.186044,-0.068796,0.059894,0.065222,-21.812132,-29.076214,-1.653320,,,,,,,
1504198513.118444,-2.278867,1.265154,-2.943737,0.961452,-0.182946,-0.942444,-0.228573,-0.953654,0.195700,-0.066654,0.082865,0.050699,-21.812132,-29.076214,-1.653320,,,,,,,
1504198513.128454,-2.322435,1.265307,-2.900394,0.959515,-0.240557,-0.860155,-0.219727,-0.953700,0.205370,-0.054672,0.087260,0.037504,-21.210218,-29.300320,-0.750122,,,,,,,
1504198513.138464,-2.365162,1.264450,-2.858499,0.963180,-0.283266,-0.807771,-0.211327,-0.953442,0.215151,-0.044136,0.059155,0.031858,-21.210218,-29.300320,-0.750122,,,,,,,
1504198513.148474,-2.407165,1.262281,-2.817209,0.998433,-0.251632,-0.766136,-0.203491,-0.952785,0.225370,-0.044021,0.015209,0.047671,-20.533186,-29.748470,-0.145081,,,,,,,
1504198513.158481,-2.447897,1.259193,-2.776762,1.053977,-0.213778,-0.718073,-0.196026,-0.951843,0.235730,-0.053532,-0.027481,0.082889,-20.533186,-29.748470,-0.145081,,,,,,,
1504198513.168490,-2.487210,1.255071,-2.737808,1.075958,-0.236388,-0.668895,-0.188996,-0.950571,0.246363,-0.054550,-0.049658,0.098440,-19.705671,-30.121868,0.909790,,,,,,,
1504198513.178500,-2.525224,1.250072,-2.700974,1.089896,-0.329263,-0.617472,-0.182241,-0.949007,0.257242,-0.049830,-0.042692,0.081717,-19.705671,-30.121868,0.909790,,,,,,,
1504198513.188510,-2.562295,1.244129,-2.666437,1.113028,-0.468044,-0.557412,-0.175666,-0.947117,0.268534,-0.041833,-0.022243,0.057256,-19.104689,-29.970959,1.810181,,,,,,,
1504198513.198520,-2.598493,1.237480,-2.634102,1.121549,-0.585360,-0.528371,-0.169084,-0.944962,0.280102,-0.030761,-0.011932,0.041981,-19.104689,-29.970959,1.810181,,,,,,,
1504198513.208529,-2.634141,1.230251,-2.602908,1.147938,-0.622870,-0.531461,-0.162309,-0.942573,0.291912,-0.019775,-0.015237,0.042286,-18.502485,-30.270214,2.788910,,,,,,,
1504198513.218539,-2.669152,1.222499,-2.572042,1.185747,-0.585850,-0.565618,-0.155311,-0.939955,0.303912,-0.016091,-0.034578,0.060407,-18.502485,-30.270214,2.788910,,,,,,,
1504198513.228549,-2.703310,1.214351,-2.540908,1.204157,-0.451680,-0.619192,-0.148087,-0.937143,0.315964,-0.020309,-0.055807,0.080368,-18.275969,-30.196438,3.913940,,,,,,,
1504198513.238559,-2.735134,1.206059,-2.510457,1.192699,-0.298115,-0.642966,-0.141026,-0.934218,0.327642,-0.034374,-0.074831,0.090357,-18.275969,-30.196438,3.913940,,,,,,,
1504198513.248568,-2.764453,1.197571,-2.481602,1.175085,-0.226585,-0.633516,-0.134276,-0.931156,0.338996,-0.047410,-0.098232,0.088693,-17.448606,-30.420116,5.117676,,,,,,,
1504198513.258578,-2.791067,1.189128,-2.455398,1.114021,-0.230389,-0.589852,-0.127903,-0.928044,0.349820,-0.056103,-0.100047,0.043887,-17.448606,-30.420116,5.117676,,,,,,,
1504198513.268588,-2.815198,1.180986,-2.432425,1.033115,-0.303313,-0.529021,-0.121844,-0.924981,0.359950,-0.059385,-0.081412,-0.012782,-17.222258,-30.420895,6.018250,,,,,,,
1504198513.278598,-2.837206,1.173393,-2.412482,0.932023,-0.372860,-0.479973,-0.115995,-0.922069,0.369234,-0.051440,-0.066395,-0.064165,-17.222258,-30.420895,6.018250,,,,,,,
1504198513.288608,-2.856970,1.166648,-2.395039,0.811420,-0.359111,-0.450319,-0.110419,-0.919437,0.377415,-0.035608,-0.047939,-0.094609,-16.622053,-30.194256,6.543030,,,,,,,
1504198513.298617,-2.874228,1.160959,-2.379129,0.686640,-0.220618,-0.452914,-0.105270,-0.917186,0.384303,-0.027009,-0.034352,-0.089671,-16.622053,-30.194256,6.543030,,,,,,,
1504198513.308627,-2.888833,1.156275,-2.363955,0.582700,-0.020477,-0.470526,-0.100719,-0.915309,0.389955,-0.032078,-0.041920,-0.055986,-16.095518,-30.268688,7.444946,,,,,,,
1504198513.318637,-2.901116,1.152525,-2.349336,0.481683,0.147668,-0.483806,-0.096738,-0.913793,0.394493,-0.042559,-0.062617,-0.024941,-16.095518,-30.268688,7.444946,,,,,,,
1504198513.328616,-2.911374,1.149713,-2.335508,0.376920,0.258284,-0.479913,-0.093273,-0.912647,0.397965,-0.050038,-0.076047,-0.027177,-15.720472,-29.968044,7.968597,,,,,,,
1504198513.338626,-2.920133,1.147939,-2.322891,0.257399,0.269900,-0.456658,-0.090139,-0.911920,0.400346,-0.051066,-0.080466,-0.048600,-15.720472,-29.968044,7.968597,,,,,,,
1504198513.348636,-2.928246,1.147215,-2.311677,0.138162,0.188798,-0.424700,-0.087028,-0.911623,0.401709,-0.044350,-0.080839,-0.082648,-15.269499,-30.266323,8.121979,,,,,,,
1504198513.358645,-2.935570,1.147533,-2.302195,0.019941,0.114059,-0.372470,-0.084024,-0.911753,0.402052,-0.032157,-0.061422,-0.120650,-15.269499,-30.266323,8.121979,,,,,,,
1504198513.368655,-2.941773,1.148776,-2.294749,-0.084469,0.039195,-0.308475,-0.081303,-0.912263,0.401454,-0.018550,-0.037810,-0.125926,-14.818754,-30.340054,8.498627,,,,,,,
1504198513.378665,-2.947405,1.150828,-2.288861,-0.176059,-0.047473,-0.266852,-0.078680,-0.913102,0.400068,-0.005198,-0.014907,-0.113355,-14.818754,-30.340054,8.498627,,,,,,,
1504198513.388675,-2.952709,1.153721,-2.283867,-0.267042,-0.075509,-0.253084,-0.076060,-0.914278,0.397884,0.001765,0.000139,-0.096324,-14.668943,-30.264385,8.498444,,,,,,,
1504198513.398684,-2.957070,1.157558,-2.278860,-0.375511,0.087382,-0.278109,-0.073680,-0.915825,0.394760,0.004085,-0.005333,-0.058197,-14.668943,-30.264385,8.498444,,,,,,,
1504198513.408694,-2.959484,1.162727,-2.273176,-0.482171,0.323816,-0.334216,-0.071869,-0.917889,0.390276,-0.002167,-0.028065,-0.004304,-14.668562,-30.414379,8.499573,,,,,,,
1504198513.418704,-2.961544,1.168784,-2.265987,-0.576463,0.500483,-0.398735,-0.070068,-0.920276,0.384946,-0.030991,-0.138517,-0.027433,-14.668562,-30.414379,8.499573,,,,,,,
1504198513.428714,-2.962816,1.176283,-2.258723,-0.719082,0.536835,-0.410788,-0.068349,-0.923184,0.378233,-0.021144,-0.220859,-0.080412,-14.144255,-30.411114,8.050842,,,,,,,
1504198513.438723,-2.964861,1.184485,-2.252255,-0.768947,0.325158,-0.378479,-0.066242,-0.926305,0.370906,-0.012539,-0.214579,-0.131160,-14.145033,-30.410076,7.525848,,,,,,,
1504198513.448733,-2.968514,1.193320,-2.246817,-0.860737,0.073335,-0.347239,-0.063475,-0.929598,0.363069,-0.012346,-0.209334,-0.173051,-14.145033,-30.410076,7.525848,,,,,,,
1504198513.458743,-2.974002,1.202710,-2.241966,-0.900939,-0.139473,-0.328788,-0.060023,-0.933018,0.354789,0.009348,-0.216274,-0.137764,-13.694929,-30.632458,7.228668,,,,,,,
1504198513.468753,-2.980631,1.211578,-2.237033,-0.811972,-0.212681,-0.314628,-0.056341,-0.936172,0.346999,0.029333,-0.160371,-0.097655,-13.694929,-30.632458,7.228668,,,,,,,
1504198513.478763,-2.987754,1.218909,-2.230812,-0.657140,-0.075408,-0.333815,-0.052815,-0.938724,0.340600,0.024342,-0.112179,0.013923,-13.544401,-31.155727,6.707947,,,,,,,
1504198513.488772,-2.993975,1.225196,-2.223061,-0.555863,0.164611,-0.360748,-0.049826,-0.940872,0.335077,0.007345,-0.118973,0.182089,-13.544401,-31.155727,6.707947,,,,,,,
1504198513.498782,-2.999283,1.230116,-2.214559,-0.412999,0.293423,-0.346851,-0.047389,-0.942528,0.330751,-0.004811,-0.106499,0.206542,-13.094404,-31.377972,6.335754,,,,,,,
1504198513.508792,-3.004560,1.234150,-2.206223,-0.347450,0.228929,-0.329546,-0.045124,-0.943868,0.327227,-0.007641,-0.071574,0.123044,-13.094404,-31.377972,6.335754,,,,,,,
1504198513.518802,-3.011058,1.237884,-2.198206,-0.347587,0.095701,-0.301558,-0.042537,-0.945094,0.324017,0.007946,-0.068425,0.059040,-13.394178,-31.603863,6.111694,,,,,,,
1504198513.528811,-3.017015,1.241796,-2.191649,-0.357156,-0.000179,-0.248036,-0.040147,-0.946366,0.320593,0.022050,-0.033355,-0.001319,-13.394178,-31.603863,6.111694,,,,,,,
1504198513.538821,-3.022311,1.245335,-2.186545,-0.323741,-0.055924,-0.191307,-0.038049,-0.947503,0.317474,0.031641,0.014657,-0.005661,-13.019026,-31.751888,5.963745,,,,,,,
1504198513.548831,-3.026336,1.248446,-2.183095,-0.283695,-0.080825,-0.131419,-0.036432,-0.948493,0.314695,0.029947,0.083335,-0.005537,-13.019026,-31.751888,5.963745,,,,,,,
1504198513.558841,-3.028515,1.251474,-2.180931,-0.302340,0.013061,-0.093191,-0.035422,-0.949448,0.311918,0.021948,0.118516,0.018145,-12.493727,-31.824673,6.040588,,,,,,,
1504198513.568850,-3.029661,1.254979,-2.179275,-0.358633,0.042301,-0.097609,-0.034693,-0.950543,0.308650,0.019678,0.122937,0.047337,-12.493727,-31.824673,6.040588,,,,,,,
1504198513.578860,-3.032739,1.259559,-2.175464,-0.475274,0.070006,-0.198196,-0.033269,-0.951955,0.304424,0.023366,0.088308,0.043446,-12.495237,-31.448925,5.662781,,,,,,,
1504198513.588870,-3.041442,1.262964,-2.167520,-0.219706,-0.184548,-0.292303,-0.030294,-0.952993,0.301475,0.023962,0.064229,0.001503,-12.495237,-31.448925,5.662781,,,,,,,
1504198513.598880,-3.051908,1.264548,-2.157657,-0.133132,-0.057347,-0.332939,-0.027002,-0.953471,0.300272,0.012918,-0.009450,0.097357,-12.120771,-31.371792,5.438141,,,,,,,
1504198513.608889,-3.063515,1.265942,-2.144984,-0.072044,0.066897,-0.402433,-0.023412,-0.953891,0.299240,-0.048793,-0.075757,0.340195,-12.120771,-31.371792,5.438141,,,,,,,
1504198513.618899,-3.074946,1.265822,-2.131111,0.066957,0.229868,-0.415289,-0.019997,-0.953855,0.299602,-0.068458,-0.004764,0.345967,-11.970579,-31.446117,5.439056,,,,,,,
1504198513.628909,-3.084148,1.265425,-2.117463,0.055673,0.427085,-0.403914,-0.017261,-0.953735,0.300151,-0.089963,0.052155,0.257664,-11.970579,-31.446117,5.439056,,,,,,,
1504198513.638919,-3.091505,1.265478,-2.104499,0.007172,0.510583,-0.386000,-0.015050,-0.953751,0.300220,-0.081279,0.059312,0.178860,-11.745131,-31.669964,5.366302,,,,,,,
1504198513.648929,-3.098186,1.265693,-2.092124,-0.009953,0.519223,-0.361495,-0.013035,-0.953816,0.300109,-0.084087,0.040715,0.092561,-11.745131,-31.669964,5.366302,,,,,,,
1504198513.658938,-3.102360,1.266143,-2.082009,-0.037801,0.555600,-0.281552,-0.011765,-0.953951,0.299732,-0.064102,0.009386,0.044567,-11.519636,-31.819088,5.442993,,,,,,,
1504198513.668948,-3.103795,1.266523,-2.074845,-0.024557,0.529829,-0.197159,-0.011321,-0.954065,0.299386,-0.056580,-0.048270,0.023810,-11.519636,-31.819088,5.442993,,,,,,,
1504198513.678927,-3.102598,1.267179,-2.070725,-0.078645,0.495013,-0.104327,-0.011655,-0.954261,0.298747,-0.074877,-0.075463,-0.014231,-11.144606,-31.966961,5.220032,,,,,,,
1504198513.688937,-3.100803,1.268751,-2.068582,-0.186730,0.345613,-0.064757,-0.012131,-0.954730,0.297226,-0.066620,-0.092862,-0.050385,-11.144606,-31.966961,5.220032,,,,,,,
1504198513.698947,-3.097507,1.272270,-2.068805,-0.406240,0.301509,0.022467,-0.012962,-0.955771,0.293826,-0.035607,-0.047922,-0.102130,-11.370359,-31.667980,5.217224,,,,,,,
1504198513.708957,-3.090671,1.276777,-2.073480,-0.467216,0.223032,0.143117,-0.014751,-0.957087,0.289426,-0.003529,0.048762,-0.115506,-11.370359,-31.667980,5.217224,,,,,,,
1504198513.718966,-3.082144,1.281773,-2.080042,-0.534390,0.246997,0.172845,-0.016934,-0.958523,0.284512,-0.039142,0.132931,-0.069379,-11.295088,-31.817486,5.143524,,,,,,,
1504198513.728976,-3.070859,1.287229,-2.089756,-0.562297,0.148034,0.261566,-0.019774,-0.960063,0.279083,0.024397,0.173763,0.056580,-11.295088,-31.817486,5.143524,,,,,,,
1504198513.738986,-3.059984,1.293098,-2.102109,-0.627145,-0.198857,0.300492,-0.022348,-0.961689,0.273230,0.013330,0.136341,0.073312,-11.445845,-31.742413,4.767609,,,,,,,
1504198513.748996,-3.049515,1.299739,-2.116697,-0.722843,-0.396318,0.346572,-0.024619,-0.963488,0.266617,-0.018304,0.120776,-0.037368,-11.445845,-31.742413,4.767609,,,,,,,
1504198513.759005,-3.038560,1.307312,-2.133599,-0.809574,-0.556530,0.365918,-0.026787,-0.965488,0.259065,0.041664,0.083530,-0.073106,-11.897276,-31.443539,4.314209,,,,,,,
1504198513.769015,-3.030243,1.316361,-2.148462,-0.992847,-0.604972,0.239732,-0.027969,-0.967806,0.250140,0.073425,0.038728,-0.110141,-11.897276,-31.443539,4.314209,,,,,,,
1504198513.779025,-3.027897,1.328043,-2.156117,-1.235782,-0.452463,-0.009662,-0.027271,-0.970680,0.238824,0.105564,0.043327,-0.089959,-11.598631,-31.216137,3.788239,,,,,,,
1504198513.789035,-3.030188,1.342092,-2.156386,-1.448310,-0.192646,-0.194082,-0.025205,-0.973961,0.225310,0.114042,0.048912,-0.029097,-11.598631,-31.216137,3.788239,,,,,,,
1504198513.799045,-3.039375,1.357268,-2.147451,-1.473375,0.010245,-0.405829,-0.021623,-0.977289,0.210803,0.072038,0.040430,0.022839,-11.598707,-31.589794,3.116089,,,,,,,
1504198513.809054,-3.051866,1.371183,-2.131516,-1.310905,0.418146,-0.453232,-0.017768,-0.980143,0.197492,-0.000604,0.004283,0.029848,-11.598707,-31.589794,3.116089,,,,,,,
1504198513.819064,-3.060026,1.383669,-2.116815,-1.194134,0.667506,-0.362741,-0.015158,-0.982543,0.185419,-0.032770,-0.051195,0.136374,-11.374952,-31.587139,2.291626,,,,,,,
1504198513.829074,-3.064743,1.394929,-2.105794,-1.076960,0.573728,-0.260969,-0.013433,-0.984575,0.174446,-0.048793,-0.054640,0.135247,-11.374952,-31.587139,2.291626,,,,,,,
1504198513.839084,-3.064844,1.404726,-2.101730,-0.934641,0.324107,-0.102307,-0.012675,-0.986242,0.164822,-0.049444,0.010564,0.016163,-11.225325,-31.884975,1.544220,,,,,,,
1504198513.849093,-3.058063,1.413072,-2.107639,-0.814207,0.016041,0.072432,-0.013105,-0.987587,0.156523,-0.015841,-0.018272,-0.049528,-11.225325,-31.884975,1.544220,,,,,,,
1504198513.859103,-3.045095,1.420407,-2.122749,-0.727403,-0.261855,0.192621,-0.014435,-0.988713,0.149126,0.014634,-0.048198,-0.086244,-11.226866,-31.583920,1.016968,,,,,,,
1504198513.869113,-3.027069,1.426889,-2.144741,-0.665902,-0.395640,0.268750,-0.016388,-0.989663,0.142472,0.026261,-0.015800,-0.113923,-11.226866,-31.583920,1.016968,,,,,,,
1504198513.879123,-3.005082,1.432597,-2.171151,-0.590523,-0.419742,0.305214,-0.018747,-0.990466,0.136478,0.050150,-0.006864,-0.107669,-11.077879,-31.357647,0.715668,,,,,,,
1504198513.889132,-2.981305,1.437350,-2.199297,-0.502964,-0.416192,0.296821,-0.021235,-0.991109,0.131345,0.071727,-0.009745,-0.094175,-11.077879,-31.357647,0.715668,,,,,,,
1504198513.899142,-2.959038,1.440851,-2.226232,-0.364496,-0.451422,0.287516,-0.023524,-0.991569,0.127427,0.063838,-0.022606,-0.082780,-11.152769,-31.358135,0.790466,,,,,,,
1504198513.909152,-2.936703,1.442939,-2.253994,-0.248086,-0.547258,0.325246,-0.025943,-0.991837,0.124842,0.056476,-0.017715,-0.079935,-11.152769,-31.358135,0.790466,,,,,,,
1504198513.919162,-2.912157,1.443754,-2.284845,-0.117650,-0.620837,0.367230,-0.028815,-0.991941,0.123381,0.045280,-0.009097,-0.057310,-11.527617,-31.285275,1.013977,,,,,,,
1504198513.929171,-2.893883,1.442430,-2.310288,0.107980,-0.712170,0.333625,-0.031387,-0.991772,0.124107,0.036972,-0.006366,-0.047081,-11.527617,-31.285275,1.013977,,,,,,,
1504198513.939181,-2.886448,1.438804,-2.325592,0.351010,-0.790812,0.254130,-0.033216,-0.991302,0.127349,0.047544,-0.088075,-0.044753,-11.377653,-31.135052,1.238220,,,,,,,
1504198513.949191,-2.887050,1.433819,-2.332684,0.502997,-0.761111,0.205241,-0.034384,-0.990633,0.132150,0.038061,-0.101316,0.022788,-11.377653,-31.135052,1.238220,,,,,,,
1504198513.959201,-2.902308,1.427282,-2.325840,0.700307,-0.876578,0.035002,-0.033897,-0.989719,0.138947,-0.037300,-0.099422,0.075103,-11.376646,-31.136395,1.913208,,,,,,,
1504198513.969211,-2.925420,1.418940,-2.313290,0.904378,-1.120129,0.015504,-0.032447,-0.988492,0.147752,-0.056329,-0.098300,0.057784,-11.376646,-31.136395,1.913208,,,,,,,
1504198513.979220,-2.944852,1.408947,-2.304804,1.031325,-1.076496,0.089298,-0.031499,-0.986931,0.158035,-0.146586,-0.126304,0.033265,-11.524992,-31.214016,2.888428,,,,,,,
1504198513.989230,-2.962839,1.398421,-2.296550,1.065644,-0.948860,0.044302,-0.030497,-0.985180,0.168790,-0.184621,-0.099552,0.054446,-11.524992,-31.214016,2.888428,,,,,,,
1504198513.999240,-2.984216,1.387909,-2.283849,1.079755,-0.865726,-0.084976,-0.028504,-0.983323,0.179622,-0.131271,-0.061004,0.064427,-11.074430,-30.988491,3.637848,,,,,,,
1504198514.009250,-3.012730,1.377263,-2.263360,1.113073,-0.815727,-0.267532,-0.024715,-0.981331,0.190733,-0.038944,-0.058464,0.052660,-11.074430,-30.988491,3.637848,,,,,,,
1504198514.019259,-3.044760,1.366747,-2.237766,1.089489,-0.656602,-0.418358,-0.019591,-0.979254,0.201687,0.042647,-0.034876,0.049320,-10.623381,-30.913097,4.463440,,,,,,,
1504198514.029239,-3.076442,1.356812,-2.209747,1.019962,-0.341571,-0.520437,-0.013825,-0.977193,0.211905,0.025742,0.009038,0.065118,-10.623381,-30.913097,4.463440,,,,,,,
1504198514.039248,-3.104651,1.347160,-2.181661,0.987795,0.006134,-0.573408,-0.008191,-0.975097,0.221625,-0.043277,0.045807,0.085946,-10.171537,-31.063015,5.440704,,,,,,,
1504198514.049258,-3.131354,1.337830,-2.152268,0.924044,0.247583,-0.667876,-0.002364,-0.972986,0.230852,-0.057634,0.047052,0.114881,-10.171537,-31.063015,5.440704,,,,,,,
1504198514.059268,3.125479,1.329311,-2.121420,0.838151,0.396493,-0.749410,0.003853,-0.970984,0.239114,-0.047082,0.048544,0.125327,-10.095335,-31.139034,6.116455,,,,,,,
1504198514.069278,3.101901,1.321456,-2.091802,0.741075,0.541133,-0.734890,0.009792,-0.969075,0.246570,-0.037715,0.075948,0.100170,-10.095335,-31.139034,6.116455,,,,,,,
1504198514.079287,3.079403,1.314558,-2.063438,0.624284,0.458983,-0.754148,0.015751,-0.967350,0.252953,-0.036610,0.086033,0.073982,-9.420225,-30.911892,6.566406,,,,,,,
1504198514.089297,3.051094,1.308299,-2.032414,0.562698,0.022716,-0.870900,0.023452,-0.965745,0.258431,-0.031371,0.098603,0.018562,-9.420225,-30.911892,6.566406,,,,,,,
1504198514.099307,3.018657,1.301167,-1.999989,0.625690,-0.141844,-0.929207,0.032664,-0.963870,0.264364,0.064381,-0.033964,0.012659,-8.895262,-30.759975,6.791595,,,,,,,
1504198514.109317,2.986125,1.294407,-1.967789,0.509621,-0.135523,-0.964644,0.042254,-0.962047,0.269592,0.056883,0.007259,0.014984,-8.895262,-30.759975,6.791595,,,,,,,
1504198514.119327,2.953744,1.288905,-1.933960,0.350454,0.065125,-1.032520,0.051948,-0.960531,0.273280,-0.086845,0.122091,-0.022120,-8.218611,-30.833889,7.768860,,,,,,,
1504198514.129336,2.920696,1.283937,-1.897944,0.260015,0.185292,-1.104404,0.061994,-0.959137,0.276067,-0.051603,0.071427,0.056071,-8.218611,-30.833889,7.768860,,,,,,,
1504198514.139346,2.887317,1.279180,-1.860288,0.195059,0.291394,-1.174085,0.072319,-0.957781,0.278256,-0.004906,0.076875,0.124866,-7.617033,-31.281796,8.073700,,,,,,,
1504198514.149356,2.851942,1.274626,-1.820509,0.104487,0.263440,-1.242507,0.083360,-0.956461,0.279702,0.030928,0.075632,0.172599,-7.617033,-31.281796,8.073700,,,,,,,
1504198514.159363,2.819143,1.270528,-1.782580,0.039939,0.387486,-1.151041,0.093729,-0.955257,0.280533,0.091040,0.056164,0.145905,-6.791975,-31.352932,8.001312,,,,,,,
1504198514.169372,2.791707,1.267074,-1.748298,-0.036829,0.590477,-1.050128,0.102520,-0.954230,0.280954,-0.023876,0.013922,0.118766,-6.791975,-31.352932,8.001312,,,,,,,
1504198514.179382,2.768637,1.263339,-1.716148,0.028019,0.844594,-1.023779,0.110272,-0.953106,0.281832,-0.175045,0.000561,0.143034,-6.191938,-31.275539,8.152222,,,,,,,
1504198514.189392,2.755386,1.260374,-1.688531,-0.072403,1.462236,-0.863865,0.115060,-0.952205,0.282962,-0.108133,-0.019490,0.171002,-6.191938,-31.275539,8.152222,,,,,,,
1504198514.199402,2.736004,1.258317,-1.656089,-0.195388,0.905076,-1.057362,0.121295,-0.951574,0.282478,-0.143085,0.065756,0.145501,-5.816633,-31.348995,8.228729,,,,,,,
1504198514.209411,2.708407,1.254068,-1.622558,-0.028285,0.299540,-1.090162,0.130740,-0.950259,0.282691,0.063703,-0.045041,0.094689,-5.816633,-31.348995,8.228729,,,,,,,
1504198514.219421,2.679251,1.250843,-1.590466,-0.188092,0.103650,-1.022847,0.140291,-0.949250,0.281501,0.261869,-0.153503,0.024163,-5.292540,-31.121197,8.003326,,,,,,,
1504198514.229431,2.651712,1.248684,-1.560596,-0.241120,0.082654,-0.906555,0.148953,-0.948569,0.279339,0.006381,-0.063730,-0.083096,-5.292540,-31.121197,8.003326,,,,,,,
1504198514.239441,2.627190,1.246680,-1.534501,-0.224537,-0.043338,-0.796362,0.156693,-0.947932,0.277257,-0.082581,-0.135121,0.012217,-4.617094,-31.343014,7.931671,,,,,,,
1504198514.249450,2.606103,1.244756,-1.513489,-0.135447,-0.145467,-0.639119,0.163434,-0.947318,0.275459,-0.146756,-0.123147,0.049324,-4.617094,-31.343014,7.931671,,,,,,,
1504198514.259460,2.588983,1.242571,-1.496964,-0.069587,-0.125856,-0.549378,0.169212,-0.946616,0.274382,-0.146843,-0.133340,0.058183,-4.242857,-31.041317,7.930328,,,,,,,
1504198514.269470,2.573220,1.240739,-1.482549,-0.092130,-0.215283,-0.451058,0.174449,-0.946024,0.273142,-0.011546,-0.109183,0.102300,-4.242857,-31.041317,7.930328,,,,,,,
1504198514.279480,2.561441,1.239459,-1.472896,-0.044433,-0.288303,-0.290736,0.178318,-0.945608,0.272081,0.040569,-0.067713,0.034026,-3.792814,-31.188854,7.707581,,,,,,,
1504198514.289490,2.552645,1.238780,-1.467244,-0.032783,-0.340766,-0.143322,0.181061,-0.945387,0.271036,0.004883,-0.100435,0.008353,-3.792814,-31.188854,7.707581,,,,,,,
1504198514.299499,2.546783,1.238422,-1.465093,0.005090,-0.348636,-0.048244,0.182836,-0.945270,0.270250,-0.018514,-0.108303,-0.017274,-3.642851,-31.262875,7.558502,,,,,,,
1504198514.309509,2.544980,1.238200,-1.466656,0.054872,-0.336355,0.044685,0.183441,-0.945198,0.270094,-0.036239,-0.107994,-0.033613,-3.642851,-31.262875,7.558502,,,,,,,
1504198514.319519,2.547281,1.238218,-1.471787,0.109513,-0.226119,0.175876,0.182809,-0.945204,0.270501,-0.035241,-0.100817,-0.036797,-3.417479,-31.187618,7.933502,,,,,,,
1504198514.329529,2.551064,1.238537,-1.479255,0.098688,-0.339050,0.240100,0.181617,-0.945308,0.270940,-0.006019,-0.089681,-0.055135,-3.417479,-31.187618,7.933502,,,,,,,
1504198514.339538,2.555721,1.239456,-1.487955,0.074712,-0.368745,0.293481,0.179873,-0.945607,0.271059,0.002729,-0.058070,-0.091142,-3.643339,-30.888470,7.855713,,,,,,,
1504198514.349548,2.558959,1.240748,-1.495575,0.007258,-0.415048,0.266761,0.178322,-0.946027,0.270619,0.045830,-0.039584,-0.090413,-3.643339,-30.888470,7.855713,,,,,,,
1504198514.359558,2.561556,1.242518,-1.501572,-0.042707,-0.264378,0.257869,0.176700,-0.946599,0.269680,0.030804,0.008458,-0.079251,-3.868528,-30.814480,7.854584,,,,,,,
1504198514.369568,2.565077,1.244441,-1.507329,-0.065497,-0.181070,0.254481,0.174757,-0.947217,0.268775,0.018098,0.005200,-0.023093,-3.868528,-30.814480,7.854584,,,,,,,
1504198514.379547,2.567961,1.246674,-1.511932,-0.124795,-0.134744,0.238285,0.172833,-0.947931,0.267500,-0.011639,-0.013190,0.044817,-4.018156,-30.965160,7.855347,,,,,,,
1504198514.389557,2.569554,1.249279,-1.514513,-0.191296,-0.069154,0.199628,0.171069,-0.948757,0.265698,-0.022708,-0.015156,0.032260,-4.018156,-30.965160,7.855347,,,,,,,
1504198514.399566,2.570385,1.251872,-1.515667,-0.193935,-0.022207,0.162181,0.169517,-0.949573,0.263769,-0.023415,-0.035183,0.054010,-4.168425,-31.040234,7.555511,,,,,,,
1504198514.409576,2.570319,1.254211,-1.515955,-0.192807,-0.037097,0.125918,0.168334,-0.950304,0.261889,-0.037749,-0.025862,0.066923,-4.168425,-31.040234,7.555511,,,,,,,
1504198514.419586,2.568206,1.256684,-1.514422,-0.256804,-0.062099,0.082088,0.167611,-0.951071,0.259558,-0.039056,-0.014398,0.034097,-4.168684,-30.890392,7.629425,,,,,,,
1504198514.429596,2.563411,1.259830,-1.509631,-0.378787,-0.006692,0.027341,0.167218,-0.952038,0.256244,-0.030392,0.004300,-0.008976,-4.168684,-30.890392,7.629425,,,,,,,
1504198514.439605,2.554546,1.263661,-1.499640,-0.522664,0.089427,-0.064874,0.167462,-0.953204,0.251713,-0.019558,0.046526,0.012508,-4.319059,-30.965313,7.254608,,,,,,,
1504198514.449615,2.542359,1.268030,-1.484783,-0.630969,0.239585,-0.143247,0.168166,-0.954515,0.246213,-0.011001,0.077745,0.068240,-4.319059,-30.965313,7.254608,,,,,,,
1504198514.459625,2.527607,1.272526,-1.466165,-0.698135,0.341433,-0.204385,0.169306,-0.955846,0.240195,-0.029764,0.037282,0.136361,-4.169615,-30.963894,6.879944,,,,,,,
1504198514.469635,2.514005,1.277270,-1.447319,-0.709209,0.455492,-0.154437,0.169893,-0.957229,0.234197,-0.060533,0.002716,0.155558,-4.169615,-30.963894,6.879944,,,,,,,
1504198514.479645,2.501174,1.282506,-1.429287,-0.735324,0.431133,-0.091463,0.169886,-0.958731,0.227975,-0.086161,-0.064203,0.155142,-4.394316,-31.264309,6.581635,,,,,,,
1504198514.489654,2.486650,1.288538,-1.410305,-0.831057,0.354099,-0.059471,0.169654,-0.960429,0.220894,-0.079505,-0.072149,0.078148,-4.394316,-31.264309,6.581635,,,,,,,
1504198514.499664,2.468451,1.295771,-1.389007,-0.959812,0.178190,0.017469,0.169310,-0.962418,0.212332,-0.008177,-0.063964,-0.004447,-4.319624,-31.413067,6.132965,,,,,,,
1504198514.509674,2.448169,1.304056,-1.367775,-1.003479,-0.032517,0.092483,0.168479,-0.964635,0.202716,0.024926,-0.054118,-0.047991,-4.319624,-31.413067,6.132965,,,,,,,
1504198514.519684,2.426440,1.312724,-1.346673,-1.024090,-0.162427,0.166327,0.167354,-0.966884,0.192687,0.035908,-0.035344,-0.040343,-4.245832,-31.336391,5.457550,,,,,,,
1504198514.529693,2.401186,1.321530,-1.322270,-1.086830,-0.157612,0.132053,0.166417,-0.969094,0.182108,0.030605,-0.010475,-0.040323,-4.245832,-31.336391,5.457550,,,,,,,
1504198514.539703,2.372244,1.331074,-1.292949,-1.216761,0.017131,0.150733,0.165175,-0.971404,0.170563,0.017870,0.061171,-0.053178,-4.396910,-31.260876,4.856628,,,,,,,
1504198514.549713,2.340826,1.341366,-1.259716,-1.281332,0.101811,0.183561,0.163265,-0.973796,0.158322,-0.029476,-0.033925,-0.022870,-4.396910,-31.260876,4.856628,,,,,,,
1504198514.559723,2.305893,1.351708,-1.223277,-1.315082,0.030672,0.204976,0.161215,-0.976096,0.145761,-0.024268,-0.049646,-0.002634,-4.547514,-31.559750,3.958466,,,,,,,
1504198514.569732,2.264830,1.362607,-1.181289,-1.410658,-0.015479,0.255060,0.158875,-0.978407,0.132207,0.021743,-0.027529,-0.038350,-4.547514,-31.559750,3.958466,,,,,,,
1504198514.579742,2.212705,1.374608,-1.129447,-1.629885,-0.178897,0.308338,0.156132,-0.980817,0.116711,0.039455,-0.092731,-0.032177,-5.073759,-31.560467,3.132172,,,,,,,
1504198514.589752,2.137033,1.387908,-1.055280,-2.002220,-0.321796,0.287665,0.153485,-0.983323,0.097566,0.046970,-0.133834,-0.014742,-5.073759,-31.560467,3.132172,,,,,,,
1504198514.599762,2.027529,1.401249,-0.947799,-2.378880,-0.364450,0.225178,0.151441,-0.985661,0.074416,0.045978,-0.111720,-0.015776,-5.149992,-31.783413,1.933624,,,,,,,
1504198514.609772,1.884199,1.412643,-0.806301,-2.614536,-0.377377,0.176759,0.149823,-0.987520,0.048555,0.042072,-0.102278,0.009505,-5.149992,-31.783413,1.933624,,,,,,,
1504198514.619781,1.711038,1.420405,-0.634963,-2.748859,-0.370930,0.164774,0.148354,-0.988713,0.020943,0.005943,-0.102459,0.062050,-5.227583,-31.780315,0.208405,,,,,,,
1504198514.629791,1.527893,1.424111,-0.453725,-2.663213,-0.402647,0.269583,0.146025,-0.989261,-0.006269,-0.018019,-0.089169,0.091108,-5.227583,-31.780315,0.208405,,,,,,,
1504198514.639801,1.351634,1.423783,-0.280334,-2.461393,-0.500238,0.293588,0.142980,-0.989213,-0.031847,-0.023641,-0.074355,0.136553,-5.531996,-31.327328,-1.970734,,,,,,,
1504198514.649811,1.201036,1.419717,-0.133720,-2.111643,-0.561667,0.236663,0.140333,-0.988609,-0.054391,0.027178,-0.009483,0.157602,-5.531996,-31.327328,-1.970734,,,,,,,
1504198514.659820,1.080929,1.413902,-0.017791,-1.776359,-0.549475,0.203065,0.137875,-0.987717,-0.073518,0.075366,0.042039,0.179414,-5.758345,-31.550793,-3.244629,,,,,,,
1504198514.669830,0.991305,1.407697,0.068028,-1.403007,-0.461913,0.144851,0.135868,-0.986729,-0.088918,0.055096,0.046253,0.221974,-5.758345,-31.550793,-3.244629,,,,,,,
1504198514.679840,0.928520,1.401768,0.127905,-1.057017,-0.346388,0.055585,0.134703,-0.985749,-0.100770,0.038637,0.031006,0.233643,-5.985563,-31.249859,-4.222443,,,,,,,
1504198514.689850,0.892470,1.396984,0.161070,-0.629620,-0.340199,-0.058965,0.134654,-0.984933,-0.108517,0.018148,0.022271,0.222485,-5.985563,-31.249859,-4.222443,,,,,,,
1504198514.699859,0.878072,1.393543,0.171959,-0.295383,-0.374803,-0.171469,0.135685,-0.984332,-0.112609,0.002804,0.032000,0.185149,-5.911161,-31.323483,-4.746704,,,,,,,
1504198514.709869,0.901538,1.394604,0.145140,-0.195037,-0.384156,-0.191553,0.137470,-0.984518,-0.108746,-0.006916,0.056937,0.132992,-5.911161,-31.323483,-4.746704,,,,,,,
1504198514.719879,0.894056,1.391802,0.148649,-0.235823,-0.405148,-0.176643,0.138804,-0.984023,-0.111499,-0.014048,0.058471,0.077350,-6.061949,-31.098843,-4.898773,,,,,,,
1504198514.729858,0.886654,1.389250,0.151712,-0.182919,-0.449292,-0.158328,0.139920,-0.983566,-0.114110,0.003665,0.067672,0.036824,-6.061949,-31.098843,-4.898773,,,,,,,
1504198514.739868,0.882247,1.387475,0.151468,-0.080761,-0.469337,-0.136767,0.140764,-0.983244,-0.115835,0.015029,0.078245,0.038015,-6.061949,-31.098843,-4.898773,,,,,,,
1504198514.749878,0.891502,1.388411,0.137549,-0.035984,-0.480360,-0.145201,0.141113,-0.983414,-0.113948,-0.019012,0.061264,0.057018,-6.061949,-31.098843,-4.898773,,,,,,,
1504198514.759887,0.889324,1.386727,0.134937,-0.081712,-0.473570,-0.164506,0.142151,-0.983107,-0.115299,-0.058441,0.035216,0.070316,-6.062254,-31.023693,-4.974335,,,,,,,
1504198514.769897,0.884268,1.384451,0.135514,-0.165725,-0.441971,-0.168977,0.143296,-0.982688,-0.117433,-0.096360,-0.006280,0.076280,-6.062254,-31.023693,-4.974335,,,,,,,
1504198514.779907,0.878700,1.382129,0.136773,-0.156076,-0.431402,-0.161507,0.144397,-0.982255,-0.119686,-0.105502,-0.030990,0.071910,-5.986998,-31.173214,-5.048035,,,,,,,
1504198514.789917,0.874427,1.380218,0.136794,-0.110242,-0.424342,-0.141159,0.145324,-0.981895,-0.121505,-0.086181,-0.013421,0.053665,-5.986998,-31.173214,-5.048035,,,,,,,
1504198514.799927,0.870238,1.378897,0.136406,-0.068242,-0.479083,-0.092957,0.145805,-0.981644,-0.122949,-0.049110,0.038117,0.019998,-5.987593,-31.022915,-5.199158,,,,,,,
1504198514.809936,0.865193,1.378052,0.136557,-0.058868,-0.482399,-0.052373,0.145814,-0.981482,-0.124221,-0.019441,0.038810,-0.018953,-5.987593,-31.022915,-5.199158,,,,,,,
1504198514.819946,0.857005,1.377224,0.139777,-0.121161,-0.511760,-0.017205,0.145406,-0.981323,-0.125943,-0.013387,-0.006470,-0.044651,-5.838087,-30.872097,-5.274902,,,,,,,
1504198514.829956,0.844951,1.375596,0.146764,-0.242748,-0.520325,-0.039816,0.145072,-0.981009,-0.128746,-0.033058,-0.068826,-0.035850,-5.838087,-30.872097,-5.274902,,,,,,,
1504198514.839966,0.828690,1.372612,0.158138,-0.404589,-0.504031,-0.080687,0.145117,-0.980426,-0.133066,-0.051047,-0.105619,-0.035284,-5.987440,-31.172619,-5.348022,,,,,,,
1504198514.849975,0.809517,1.368833,0.172521,-0.482518,-0.508718,-0.079746,0.145221,-0.979675,-0.138379,-0.065524,-0.100571,-0.031772,-5.987440,-31.172619,-5.348022,,,,,,,
1504198514.859985,0.790043,1.364994,0.187175,-0.471941,-0.510952,-0.064780,0.145169,-0.978897,-0.143827,-0.051663,-0.073318,-0.030841,-5.762861,-31.096310,-5.498016,,,,,,,
1504198514.869995,0.773625,1.361875,0.198954,-0.359794,-0.482062,-0.042221,0.144920,-0.978255,-0.148374,-0.014885,0.016921,-0.045230,-5.762861,-31.096310,-5.498016,,,,,,,
1504198514.880005,0.761472,1.359607,0.206888,-0.254816,-0.426456,-0.036801,0.144637,-0.977782,-0.151729,0.006456,0.085769,-0.057041,-5.914259,-30.721386,-5.801239,,,,,,,
1504198514.890014,0.752102,1.358002,0.212352,-0.182134,-0.401495,-0.022842,0.144281,-0.977445,-0.154224,-0.010797,0.112607,-0.062512,-5.914259,-30.721386,-5.801239,,,,,,,
1504198514.900024,0.743574,1.356600,0.217190,-0.164844,-0.370740,-0.017530,0.143888,-0.977148,-0.156457,-0.038694,0.084630,-0.058829,-6.289396,-30.573360,-5.653259,,,,,,,
1504198514.910034,0.736497,1.355599,0.220877,-0.114443,-0.332804,-0.007903,0.143434,-0.976934,-0.158196,-0.048387,0.037527,-0.032905,-6.289396,-30.573360,-5.653259,,,,,,,
1504198514.920044,0.732406,1.355247,0.222037,-0.019032,-0.276047,-0.007837,0.143016,-0.976859,-0.159037,-0.042170,-0.003350,-0.005697,-6.289778,-30.647610,-6.027710,,,,,,,
1504198514.930053,0.733266,1.355697,0.218982,0.108786,-0.180112,-0.024863,0.142858,-0.976955,-0.158588,-0.030294,-0.017964,-0.016553,-6.289778,-30.647610,-6.027710,,,,,,,
1504198514.940063,0.718734,1.354257,0.231683,0.280540,-0.077024,-0.074914,0.141465,-0.976647,-0.161706,-0.014130,-0.014473,-0.058128,-6.214216,-30.872280,-6.025848,,,,,,,
1504198514.950073,0.736480,1.356704,0.213845,0.484729,0.068411,-0.136725,0.142707,-0.977170,-0.157399,0.008325,0.011334,-0.103618,-6.214216,-30.872280,-6.025848,,,,,,,
1504198514.960083,0.763682,1.360680,0.187616,0.745891,0.185585,-0.115131,0.144246,-0.978007,-0.150651,0.002620,0.020716,-0.119688,-6.063795,-30.722652,-5.501587,,,,,,,
1504198514.970093,0.802455,1.366167,0.150586,0.898798,0.319726,-0.181282,0.146117,-0.979136,-0.141215,0.001619,-0.016942,-0.122685,-6.063795,-30.722652,-5.501587,,,,,,,
1504198514.980102,0.849521,1.370598,0.105777,1.005917,0.285955,-0.320867,0.149339,-0.980027,-0.131318,0.011427,-0.042052,-0.124847,-5.762739,-30.872204,-5.049744,,,,,,,
1504198514.990112,0.897868,1.373486,0.059766,0.821002,0.356777,-0.354402,0.153298,-0.980597,-0.122183,0.001243,0.008094,-0.100366,-5.762739,-30.872204,-5.049744,,,,,,,
1504198515.000122,0.926980,1.375261,0.033166,0.398993,0.289694,-0.134062,0.155396,-0.980944,-0.116624,-0.026154,-0.033735,-0.054015,-5.536283,-31.097393,-4.447479,,,,,,,
1504198515.010132,0.939559,1.374678,0.024562,0.014236,0.459122,-0.158511,0.157313,-0.980830,-0.114998,-0.062022,-0.107915,-0.045464,-5.536283,-31.097393,-4.447479,,,,,,,
1504198515.020141,0.927255,1.373657,0.041822,-0.098034,0.549602,-0.183398,0.156688,-0.980631,-0.117525,-0.038157,-0.075811,-0.047422,-5.535643,-31.172985,-4.146881,,,,,,,
1504198515.030151,0.938372,1.372244,0.036342,0.044082,0.583584,-0.171470,0.159101,-0.980353,-0.116595,-0.054411,0.005408,0.015231,-5.535643,-31.172985,-4.146881,,,,,,,
1504198515.040161,0.952795,1.371848,0.027929,0.123080,0.624433,-0.114833,0.161083,-0.980275,-0.114513,-0.049007,0.019521,0.100445,-5.310713,-31.321377,-4.445251,,,,,,,
1504198515.050171,0.965317,1.371701,0.021363,0.082131,0.597026,-0.077496,0.162623,-0.980246,-0.112569,-0.031046,-0.002573,0.110479,-5.310713,-31.321377,-4.445251,,,,,,,
1504198515.060180,0.975376,1.371425,0.016894,0.058352,0.562051,-0.072139,0.163971,-0.980191,-0.111080,-0.015945,0.002393,0.067897,-5.160612,-31.320858,-4.369873,,,,,,,
1504198515.070190,0.988071,1.371606,0.009648,0.157506,0.555902,-0.067687,0.165220,-0.980227,-0.108891,-0.018705,0.006899,0.063527,-5.160612,-31.320858,-4.369873,,,,,,,
1504198515.080169,1.004175,1.371740,-0.001123,0.195110,0.549238,-0.118835,0.166841,-0.980254,-0.106146,-0.032197,0.014571,0.089865,-5.235197,-31.396481,-4.219452,,,,,,,
1504198515.090179,1.019617,1.371604,-0.011713,0.130280,0.463432,-0.093178,0.168573,-0.980227,-0.103627,-0.021616,0.029085,0.073964,-5.235197,-31.396481,-4.219452,,,,,,,
1504198515.100189,1.025648,1.371319,-0.014301,0.004110,0.325893,-0.045121,0.169434,-0.980170,-0.102753,-0.019074,0.021690,0.033402,-4.709517,-31.619289,-4.141449,,,,,,,
1504198515.110199,1.033307,1.371269,-0.018663,0.123757,0.344090,-0.046013,0.170258,-0.980160,-0.101478,0.006484,-0.018741,0.004020,-4.709517,-31.619289,-4.141449,,,,,,,
1504198515.120209,1.041731,1.371973,-0.024894,0.138321,0.197926,0.008707,0.170511,-0.980300,-0.099691,0.020681,0.014952,0.061834,-4.709623,-31.619137,-4.216461,,,,,,,
1504198515.130218,1.048320,1.372667,-0.030071,0.113416,0.150182,0.005546,0.170575,-0.980437,-0.098226,0.021793,0.022932,0.098730,-4.709623,-31.619137,-4.216461,,,,,,,
1504198515.140228,1.053676,1.373226,-0.034032,0.090897,0.140770,0.012995,0.170623,-0.980546,-0.097041,0.037278,0.005342,0.085597,-4.784971,-31.394756,-4.068359,,,,,,,
1504198515.150238,1.058078,1.373819,-0.037475,0.087267,0.089646,0.017349,0.170541,-0.980663,-0.096003,0.013221,-0.000371,0.080241,-4.784971,-31.394756,-4.068359,,,,,,,
1504198515.160239,1.062982,1.374439,-0.041933,0.109328,0.042585,0.011066,0.170478,-0.980784,-0.094870,0.014290,-0.005575,0.072043,-4.709135,-31.769283,-4.140320,,,,,,,
1504198515.170248,1.068113,1.375214,-0.046866,0.125119,0.023262,0.022869,0.170297,-0.980935,-0.093628,0.024069,0.011071,0.073105,-4.709135,-31.769283,-4.140320,,,,,,,
1504198515.180258,1.076945,1.376106,-0.055609,0.212864,0.032168,-0.014354,0.170347,-0.981108,-0.091705,0.019641,0.021498,0.068146,-4.483961,-31.619015,-3.765900,,,,,,,
1504198515.190268,1.091933,1.376993,-0.070318,0.311524,0.062312,-0.066539,0.170930,-0.981279,-0.088741,0.018432,0.031633,0.062588,-4.483961,-31.619015,-3.765900,,,,,,,
1504198515.200278,1.108496,1.377677,-0.086670,0.317843,0.042031,-0.082503,0.171775,-0.981410,-0.085598,0.005669,0.033244,0.047940,-4.558653,-31.694500,-3.690552,,,,,,,
1504198515.210287,1.120926,1.378375,-0.099639,0.231501,-0.052145,-0.035521,0.172209,-0.981544,-0.083159,0.005632,0.026344,0.026839,-4.558653,-31.694500,-3.690552,,,,,,,
1504198515.220297,1.129637,1.378915,-0.109303,0.174695,-0.080455,-0.029165,0.172447,-0.981647,-0.081429,0.020576,-0.019711,0.001748,-4.558241,-31.769802,-3.539978,,,,,,,
1504198515.230307,1.137535,1.379279,-0.118140,0.167317,-0.077184,-0.041993,0.172760,-0.981717,-0.079915,0.010391,-0.009479,-0.011089,-4.558241,-31.769802,-3.539978,,,,,,,
1504198515.240317,1.146921,1.379592,-0.128403,0.198427,-0.064639,-0.055837,0.173223,-0.981776,-0.078163,0.015498,0.027964,0.008278,-4.558012,-31.770107,-3.389954,,,,,,,
1504198515.250326,1.158460,1.379928,-0.140670,0.238099,-0.046839,-0.066474,0.173811,-0.981840,-0.076027,0.019487,0.030042,0.030129,-4.558012,-31.770107,-3.389954,,,,,,,
1504198515.260336,1.185912,1.380635,-0.168556,0.269086,-0.044969,-0.069628,0.175189,-0.981974,-0.070967,0.001523,0.027643,0.025297,-4.558241,-31.545544,-3.166687,,,,,,,
1504198515.270346,1.199946,1.380859,-0.183305,0.263835,-0.043845,-0.084583,0.175963,-0.982016,-0.068422,-0.001113,0.033987,0.015825,-4.558241,-31.545544,-3.166687,,,,,,,
1504198515.280356,1.212781,1.380960,-0.196744,0.231855,-0.035065,-0.076114,0.176734,-0.982035,-0.066123,0.003747,0.038737,0.006720,-4.707747,-31.696377,-3.090912,,,,,,,
1504198515.290366,1.223701,1.381147,-0.208273,0.203983,-0.040183,-0.058008,0.177272,-0.982070,-0.064127,-0.005535,0.024612,0.000131,-4.707747,-31.696377,-3.090912,,,,,,,
1504198515.300375,1.227126,1.382158,-0.212500,0.128056,-0.067247,-0.067689,0.176556,-0.982261,-0.063184,-0.017193,0.011207,-0.006060,-4.407026,-31.845470,-2.864044,,,,,,,
1504198515.310385,1.220026,1.380697,-0.206605,-0.244577,-0.128069,-0.110924,0.177451,-0.981985,-0.064929,-0.016913,0.006415,0.004535,-4.407026,-31.845470,-2.864044,,,,,,,
1504198515.320395,1.211715,1.379080,-0.198591,-0.175533,-0.021032,-0.091779,0.178391,-0.981679,-0.066960,-0.021958,-0.049236,-0.007243,-4.407408,-31.695477,-2.865173,,,,,,,
1504198515.330405,1.206145,1.377887,-0.193150,-0.133014,-0.028861,-0.072479,0.179109,-0.981451,-0.068370,-0.058885,-0.086207,0.070003,-4.407408,-31.695477,-2.865173,,,,,,,
1504198515.340414,1.234440,1.384095,-0.220503,-0.101448,0.051849,-0.061849,0.175217,-0.982622,-0.061263,-0.050263,-0.065275,0.102737,-4.332792,-31.545132,-2.866119,,,,,,,
1504198515.350424,1.235660,1.383660,-0.220665,0.022703,0.116866,-0.035063,0.175695,-0.982541,-0.061190,-0.012686,-0.028659,0.071215,-4.332792,-31.545132,-2.866119,,,,,,,
1504198515.360434,1.242485,1.383879,-0.226494,0.132369,0.104214,-0.009233,0.175906,-0.982582,-0.059920,-0.008181,0.002327,0.029799,-4.332792,-31.545132,-2.866119,,,,,,,
1504198515.370444,1.251184,1.384370,-0.234488,0.157712,0.077355,0.000465,0.175962,-0.982673,-0.058236,0.012332,0.023246,-0.036674,-4.332792,-31.545132,-2.866119,,,,,,,
1504198515.380453,1.227297,1.381680,-0.210538,0.102258,0.071454,-0.020982,0.177009,-0.982171,-0.063312,0.008294,0.024529,-0.080792,-4.482557,-31.546108,-2.716492,,,,,,,
1504198515.390463,1.236055,1.381386,-0.217930,0.118299,0.171552,-0.081973,0.177829,-0.982115,-0.061855,-0.006275,0.018202,-0.079625,-4.482557,-31.546108,-2.716492,,,,,,,
1504198515.400473,1.244517,1.381160,-0.224542,0.106679,0.204650,-0.052164,0.178557,-0.982073,-0.060419,-0.038557,-0.002562,-0.030737,-4.256727,-31.919949,-2.788116,,,,,,,
1504198515.410483,1.253232,1.380963,-0.230794,0.096612,0.274007,-0.061911,0.179260,-0.982036,-0.058921,-0.070572,-0.050038,-0.005471,-4.256727,-31.919949,-2.788116,,,,,,,
1504198515.420492,1.260171,1.384021,-0.234818,0.020159,0.295998,-0.100480,0.176805,-0.982608,-0.056757,-0.043382,-0.064694,0.014063,-4.031996,-31.769085,-2.713684,,,,,,,
1504198515.430472,1.261916,1.383145,-0.233803,-0.058220,0.260370,-0.058924,0.177723,-0.982445,-0.056710,-0.025654,-0.046150,0.009606,-4.031996,-31.769085,-2.713684,,,,,,,
1504198515.440481,1.259566,1.382532,-0.229585,-0.102938,0.155216,-0.032131,0.178163,-0.982331,-0.057312,-0.019105,-0.056335,0.031403,-4.031507,-31.919231,-2.637512,,,,,,,
1504198515.450491,1.253649,1.381770,-0.222617,-0.161131,0.082170,-0.033171,0.178532,-0.982188,-0.058599,0.032223,-0.036749,0.079687,-4.031507,-31.919231,-2.637512,,,,,,,
1504198515.460501,1.248288,1.380992,-0.216367,-0.121712,0.074387,-0.034156,0.178940,-0.982041,-0.059797,0.084045,-0.029846,0.087812,-4.031736,-31.918941,-2.787567,,,,,,,
1504198515.470511,1.246726,1.380579,-0.214535,-0.020946,0.004286,-0.027454,0.179230,-0.981963,-0.060206,0.078140,-0.018510,0.081095,-4.031736,-31.918941,-2.787567,,,,,,,
1504198515.480521,1.247862,1.380371,-0.216325,0.032770,-0.085662,-0.031471,0.179492,-0.981924,-0.060067,0.074124,-0.019922,0.061333,-4.257032,-31.844799,-2.863678,,,,,,,
1504198515.490530,1.247821,1.380100,-0.217801,0.010808,-0.167526,-0.037770,0.179742,-0.981872,-0.060159,0.066595,-0.023224,0.024331,-4.257032,-31.844799,-2.863678,,,,,,,
1504198515.500540,1.246866,1.379669,-0.218884,0.010545,-0.209068,-0.051573,0.180086,-0.981791,-0.060465,0.050078,-0.022711,0.016779,-4.031324,-31.994244,-2.636963,,,,,,,
1504198515.510550,1.248263,1.379183,-0.222262,0.060993,-0.183888,-0.071811,0.180623,-0.981698,-0.060365,0.030727,-0.020346,0.050874,-4.031324,-31.994244,-2.636963,,,,,,,
1504198515.520560,1.254032,1.378659,-0.229604,0.135182,-0.131188,-0.101662,0.181457,-0.981598,-0.059482,0.008698,-0.022934,0.068332,-4.031843,-31.918789,-2.862549,,,,,,,
1504198515.530569,1.260804,1.378046,-0.237873,0.115897,-0.143812,-0.105943,0.182429,-0.981481,-0.058435,0.005437,-0.022013,0.036417,-4.031843,-31.918789,-2.862549,,,,,,,
1504198515.540579,1.263490,1.377111,-0.242343,0.034610,-0.176163,-0.117768,0.183460,-0.981301,-0.058223,0.011410,-0.030829,-0.019109,-3.956327,-31.993908,-2.636780,,,,,,,
1504198515.550589,1.263918,1.375856,-0.244355,-0.008752,-0.141685,-0.139252,0.184658,-0.981059,-0.058516,0.010883,-0.042683,-0.045671,-3.956327,-31.993908,-2.636780,,,,,,,
1504198515.560599,1.265910,1.374292,-0.247344,0.014323,-0.077905,-0.171347,0.186238,-0.980755,-0.058609,-0.012990,-0.032963,-0.019867,-4.032118,-31.768932,-2.788696,,,,,,,
1504198515.570608,1.268861,1.372710,-0.250850,0.016752,-0.041694,-0.172474,0.187891,-0.980445,-0.058520,-0.019068,-0.007333,0.029391,-4.032118,-31.768932,-2.788696,,,,,,,
1504198515.580618,1.271198,1.370997,-0.253501,-0.007556,-0.018041,-0.181097,0.189632,-0.980106,-0.058576,-0.030604,-0.004436,0.049650,-3.431517,-31.916546,-2.636047,,,,,,,
1504198515.590628,1.272991,1.369229,-0.255230,-0.021162,0.018296,-0.175847,0.191393,-0.979754,-0.058745,-0.031847,0.020983,0.031874,-3.431517,-31.916546,-2.636047,,,,,,,
1504198515.600638,1.275294,1.367597,-0.257173,-0.007116,0.046940,-0.165200,0.193057,-0.979426,-0.058769,-0.033252,0.032877,0.009133,-3.431669,-31.991085,-2.860504,,,,,,,
1504198515.610648,1.277579,1.366058,-0.258972,-0.014597,0.053382,-0.152415,0.194634,-0.979114,-0.058764,-0.036553,0.031894,-0.014005,-3.431669,-31.991085,-2.860504,,,,,,,
1504198515.620657,1.278862,1.364680,-0.259577,-0.025209,0.075822,-0.127923,0.196001,-0.978833,-0.058902,-0.038179,0.014783,-0.026715,-3.581099,-31.992519,-2.485840,,,,,,,
1504198515.630667,1.285350,1.364021,-0.264912,0.138405,0.149022,-0.085072,0.196997,-0.978698,-0.057811,-0.047339,0.007293,-0.014500,-3.581099,-31.992519,-2.485840,,,,,,,
1504198515.640677,1.300548,1.364096,-0.278257,0.295796,0.234012,-0.059332,0.197783,-0.978713,-0.054791,-0.047041,0.039825,0.005612,-3.431669,-31.766842,-2.487152,,,,,,,
1504198515.650687,1.308732,1.364056,-0.285390,-0.007896,0.031891,-0.032817,0.198262,-0.978705,-0.053181,-0.027287,0.067786,-0.027508,-3.431669,-31.766842,-2.487152,,,,,,,
1504198515.660696,1.296643,1.363659,-0.272888,-0.237675,0.030508,0.042573,0.197979,-0.978624,-0.055678,-0.021618,0.017885,-0.111070,-3.281172,-31.916317,-2.410675,,,,,,,
1504198515.670706,1.285924,1.363195,-0.261213,-0.230764,0.079493,0.019016,0.197807,-0.978528,-0.057925,-0.023139,-0.075793,-0.093229,-3.281172,-31.916317,-2.410675,,,,,,,
1504198515.680716,1.280244,1.363086,-0.254418,-0.111054,0.116851,0.036236,0.197577,-0.978506,-0.059078,-0.039724,-0.030634,0.075420,-3.282072,-31.690868,-2.637360,,,,,,,
1504198515.690726,1.279081,1.363323,-0.251232,-0.048311,0.227152,0.040420,0.197286,-0.978554,-0.059241,0.004024,0.008584,0.148169,-3.282072,-31.690868,-2.637360,,,,,,,
1504198515.700735,1.276329,1.363328,-0.246147,-0.128325,0.224620,0.034949,0.197117,-0.978556,-0.059782,0.003902,0.005167,0.137633,-3.132612,-31.614742,-2.862579,,,,,,,
1504198515.710745,1.267019,1.362960,-0.235292,-0.257333,0.099947,0.030675,0.196896,-0.978480,-0.061723,0.019443,-0.009252,0.033311,-3.132612,-31.614742,-2.862579,,,,,,,
1504198515.720755,1.250370,1.361977,-0.218017,-0.397709,0.010549,0.009242,0.196753,-0.978276,-0.065295,0.034967,-0.027308,-0.026700,-3.281553,-31.990566,-2.785156,,,,,,,
1504198515.730765,1.232715,1.360579,-0.199591,-0.397299,0.047865,-0.013239,0.196861,-0.977986,-0.069212,0.038399,-0.017300,0.000410,-3.281553,-31.990566,-2.785156,,,,,,,
1504198515.740774,1.220957,1.359430,-0.186960,-0.238186,0.061479,-0.019391,0.197088,-0.977745,-0.071907,0.036173,-0.008812,0.060264,-3.432188,-31.915646,-3.086090,,,,,,,
1504198515.750784,1.218707,1.359059,-0.183967,-0.020523,0.067138,-0.011552,0.197266,-0.977667,-0.072475,0.036041,0.006064,0.104885,-3.432188,-31.915646,-3.086090,,,,,,,
1504198515.760794,1.222080,1.359181,-0.186770,0.075449,0.062083,-0.009242,0.197397,-0.977693,-0.071769,0.055029,0.028032,0.102301,-3.432417,-31.915340,-3.236084,,,,,,,
1504198515.770804,1.226034,1.359459,-0.190299,0.076300,0.045010,0.006800,0.197424,-0.977751,-0.070896,0.049234,0.050078,0.036350,-3.432417,-31.915340,-3.236084,,,,,,,
1504198515.780783,1.228246,1.359836,-0.192322,0.042934,0.018628,0.022800,0.197233,-0.977830,-0.070335,0.025408,0.058229,-0.039345,-3.431929,-32.065487,-3.159973,,,,,,,
1504198515.790793,1.228736,1.359991,-0.192537,-0.004864,0.036087,0.007743,0.197125,-0.977863,-0.070188,-0.012737,0.051395,-0.075824,-3.431929,-32.065487,-3.159973,,,,,,,
1504198515.800803,1.227109,1.359747,-0.190308,-0.071759,0.062236,-0.014835,0.197235,-0.977812,-0.070589,-0.031815,0.027891,-0.060820,-3.431883,-32.215038,-3.383820,,,,,,,
1504198515.810812,1.220124,1.358599,-0.182680,-0.241334,0.038112,-0.067389,0.197792,-0.977570,-0.072350,-0.038032,-0.014663,-0.019767,-3.431883,-32.215038,-3.383820,,,,,,,
1504198515.820822,1.203983,1.356419,-0.165558,-0.468265,0.076217,-0.072119,0.198587,-0.977109,-0.076297,-0.045740,-0.058490,0.000187,-3.506590,-32.290539,-3.308441,,,,,,,
1504198515.830832,1.182419,1.354159,-0.141817,-0.572238,0.192087,-0.004190,0.198939,-0.976626,-0.081398,-0.059397,-0.090299,-0.002160,-3.506590,-32.290539,-3.308441,,,,,,,
1504198515.840842,1.159153,1.352252,-0.115341,-0.612469,0.274398,0.064977,0.198698,-0.976214,-0.086749,-0.085981,-0.084516,0.022433,-2.983213,-31.912273,-3.759949,,,,,,,
1504198515.850851,1.132805,1.350701,-0.084851,-0.689054,0.360182,0.155422,0.197714,-0.975877,-0.092595,-0.055106,-0.046081,0.036046,-2.983213,-31.912273,-3.759949,,,,,,,
1504198515.860861,1.100709,1.349278,-0.048195,-0.815298,0.370723,0.241644,0.195879,-0.975565,-0.099521,-0.027086,0.013849,0.022968,-3.432798,-31.989590,-3.610504,,,,,,,
1504198515.870871,1.062702,1.347435,-0.005465,-0.956513,0.355848,0.293728,0.193526,-0.975158,-0.107767,-0.036986,0.010071,-0.003546,-3.432798,-31.989590,-3.610504,,,,,,,
1504198515.880881,1.016915,1.344712,0.044741,-1.148124,0.308357,0.343648,0.190648,-0.974552,-0.117908,-0.026433,-0.008389,0.000583,-3.659590,-31.988216,-4.811096,,,,,,,
1504198515.890890,0.965906,1.340906,0.100281,-1.284851,0.311575,0.380765,0.187438,-0.973691,-0.129583,-0.002685,-0.055621,0.034872,-3.659590,-31.988216,-4.811096,,,,,,,
