timestamp(unix),attitude_roll(radians),attitude_pitch(radians),attitude_yaw(radians),rotation_rate_x(radians/s),rotation_rate_y(radians/s),rotation_rate_z(radians/s),gravity_x(G),gravity_y(G),gravity_z(G),user_acc_x(G),user_acc_y(G),user_acc_z(G),magnetic_field_x(microteslas),magnetic_field_y(microteslas),magnetic_field_z(microteslas),latitude(degree),longitude(degree),altitude(meter),speed(m/s),course(degree),timestamp(unix),User Mark
1504196110.668753,-0.017514,0.415794,-1.574149,0.030402,0.004564,0.042935,-0.016021,-0.403917,-0.914655,0.033233,0.017228,0.003828,12.730364,-3.064160,-29.962067,,,,,,,
1504196110.678762,-0.017351,0.416146,-1.573974,0.062032,-0.044701,0.038808,-0.015870,-0.404238,-0.914516,0.031373,0.017626,0.005016,12.879915,-2.838635,-29.888367,,,,,,,
1504196110.688772,-0.017416,0.416519,-1.573902,0.060996,-0.049997,0.022805,-0.015926,-0.404579,-0.914364,0.027737,0.017067,-0.002552,12.879915,-2.838635,-29.888367,,,,,,,
1504196110.698782,-0.017220,0.416729,-1.574011,0.045340,-0.017873,0.003507,-0.015746,-0.404771,-0.914282,0.023619,0.014009,-0.009500,13.105471,-3.062619,-29.886108,,,,,,,
1504196110.708792,-0.016633,0.416769,-1.574259,0.021214,0.024970,-0.011554,-0.015208,-0.404808,-0.914275,0.018581,0.011940,-0.006242,13.105471,-3.062619,-29.886108,,,,,,,
1504196110.718801,-0.015764,0.416559,-1.574507,-0.008470,0.051854,-0.007384,-0.014415,-0.404616,-0.914373,0.016475,0.010130,-0.005274,12.804918,-2.838971,-29.888550,,,,,,,
1504196110.728811,-0.014858,0.416112,-1.574665,-0.031970,0.054174,0.001110,-0.013589,-0.404207,-0.914566,0.016351,0.008242,-0.007507,12.804918,-2.838971,-29.888550,,,,,,,
1504196110.738821,-0.013963,0.415533,-1.574756,-0.042728,0.048931,0.009640,-0.012774,-0.403677,-0.914812,0.019778,0.006918,-0.009809,12.955477,-3.063291,-29.886475,,,,,,,
1504196110.748831,-0.013164,0.414888,-1.574846,-0.043913,0.034029,0.008597,-0.012047,-0.403087,-0.915082,0.021263,0.010097,-0.007266,12.955477,-3.063291,-29.886475,,,,,,,
1504196110.758840,-0.012498,0.414160,-1.575027,-0.039742,0.015897,-0.002039,-0.011441,-0.402421,-0.915383,0.022519,0.016465,-0.006873,12.654802,-2.839490,-29.963928,,,,,,,
1504196110.768850,-0.011913,0.413466,-1.575331,-0.024746,0.014728,-0.016958,-0.010909,-0.401785,-0.915669,0.019484,0.019675,-0.010021,12.654802,-2.839490,-29.963928,,,,,,,
1504196110.778860,-0.011345,0.412893,-1.575730,-0.007628,0.014602,-0.027606,-0.010392,-0.401261,-0.915905,0.016190,0.022888,-0.008320,12.880022,-2.838773,-29.813385,,,,,,,
1504196110.788870,-0.010846,0.412418,-1.576163,0.007251,0.005961,-0.030772,-0.009936,-0.400825,-0.916101,0.015322,0.024177,-0.012046,12.880022,-2.838773,-29.813385,,,,,,,
1504196110.798879,-0.010560,0.412042,-1.576556,0.023113,-0.009089,-0.027521,-0.009676,-0.400481,-0.916254,0.012713,0.024352,-0.017828,12.880251,-2.839078,-29.663361,,,,,,,
1504196110.808859,-0.010379,0.411884,-1.576918,0.041115,-0.022026,-0.022135,-0.009511,-0.400336,-0.916319,0.015325,0.022620,-0.018282,12.880251,-2.839078,-29.663361,,,,,,,
1504196110.818868,-0.010317,0.411943,-1.577240,0.060257,-0.028575,-0.021027,-0.009453,-0.400391,-0.916296,0.013756,0.021790,-0.016978,12.504091,-2.465466,-29.817108,,,,,,,
1504196110.828878,-0.010174,0.412112,-1.577593,0.067862,-0.014776,-0.027447,-0.009322,-0.400546,-0.916229,0.012450,0.022952,-0.013992,12.504091,-2.465466,-29.817108,,,,,,,
1504196110.838888,-0.009849,0.412270,-1.578055,0.057387,0.003439,-0.038176,-0.009024,-0.400690,-0.916169,0.010596,0.022089,-0.009902,12.955324,-2.913587,-29.737610,,,,,,,
1504196110.848855,-0.009284,0.412334,-1.578583,0.041518,0.019559,-0.040370,-0.008506,-0.400749,-0.916148,0.011451,0.018883,-0.009984,12.955324,-2.913587,-29.737610,,,,,,,
1504196110.858865,-0.008753,0.412305,-1.579034,0.022234,0.015449,-0.031859,-0.008020,-0.400722,-0.916165,0.010797,0.015041,-0.006550,13.029833,-2.763104,-29.813568,,,,,,,
1504196110.868874,-0.008393,0.412190,-1.579389,0.007052,-0.006814,-0.019038,-0.007690,-0.400617,-0.916213,0.013306,0.009916,-0.006852,13.029833,-2.763104,-29.813568,,,,,,,
1504196110.878884,-0.008263,0.412061,-1.579582,0.013211,-0.026059,-0.001916,-0.007572,-0.400499,-0.916266,0.015933,0.009370,-0.010095,13.105364,-3.062467,-29.961121,,,,,,,
1504196110.888894,-0.008358,0.412102,-1.579598,0.033337,-0.035825,0.010944,-0.007659,-0.400536,-0.916249,0.014662,0.013512,-0.002956,13.105364,-3.062467,-29.961121,,,,,,,
1504196110.898904,-0.008550,0.412404,-1.579614,0.059942,-0.046692,0.006738,-0.007833,-0.400813,-0.916126,0.015096,0.016337,0.002735,12.804873,-2.689420,-29.664673,,,,,,,
1504196110.908913,-0.008839,0.412899,-1.579674,0.085478,-0.057550,0.002530,-0.008096,-0.401266,-0.915926,0.014673,0.019171,0.002153,12.804873,-2.689420,-29.664673,,,,,,,
1504196110.918923,-0.009140,0.413533,-1.579791,0.100414,-0.059796,-0.001712,-0.008370,-0.401847,-0.915668,0.016365,0.021934,0.000461,12.655519,-2.989942,-29.737793,,,,,,,
1504196110.928933,-0.009389,0.414262,-1.580006,0.098374,-0.055500,-0.014534,-0.008595,-0.402514,-0.915373,0.015309,0.017337,-0.000947,12.655519,-2.989942,-29.737793,,,,,,,
1504196110.938943,-0.009328,0.414799,-1.580446,0.067768,-0.026451,-0.035987,-0.008537,-0.403006,-0.915157,0.013710,0.014396,-0.001377,12.880251,-3.063336,-30.036682,,,,,,,
1504196110.948952,-0.008778,0.415012,-1.581072,0.027643,0.017587,-0.050011,-0.008033,-0.403201,-0.915076,0.013892,0.010043,-0.002572,12.880251,-3.063336,-30.036682,,,,,,,
1504196110.958962,-0.007888,0.414947,-1.581659,-0.007281,0.057298,-0.043737,-0.007219,-0.403141,-0.915109,0.009507,0.005330,0.000009,12.953890,-2.612699,-30.189880,,,,,,,
1504196110.968972,-0.006764,0.414651,-1.582142,-0.031628,0.086264,-0.036359,-0.006191,-0.402871,-0.915236,0.006908,0.003228,0.001982,12.953890,-2.612699,-30.189880,,,,,,,
1504196110.978982,-0.005494,0.414238,-1.582571,-0.042287,0.091676,-0.029981,-0.005029,-0.402493,-0.915409,0.010019,0.002224,0.002919,13.104906,-2.837613,-29.887817,,,,,,,
1504196110.988991,-0.004195,0.413772,-1.583024,-0.042370,0.082089,-0.028897,-0.003841,-0.402066,-0.915603,0.014659,0.004910,0.005126,13.104906,-2.837613,-29.887817,,,,,,,
1504196110.999001,-0.003055,0.413311,-1.583497,-0.034138,0.047922,-0.023484,-0.002797,-0.401644,-0.915792,0.022420,0.009646,0.006734,12.879732,-2.763623,-29.888916,,,,,,,
1504196111.009011,-0.002317,0.412940,-1.583879,-0.021714,0.006258,-0.014850,-0.002122,-0.401304,-0.915942,0.024186,0.010191,0.004565,12.879732,-2.763623,-29.888916,,,,,,,
1504196111.019021,-0.001943,0.412687,-1.584198,-0.003832,-0.022658,-0.010498,-0.001780,-0.401072,-0.916045,0.024729,0.010981,0.001601,13.029985,-2.688550,-29.589142,,,,,,,
1504196111.029031,-0.001707,0.412588,-1.584464,0.019610,-0.023915,-0.007254,-0.001564,-0.400982,-0.916085,0.022941,0.015667,0.002617,13.029985,-2.688550,-29.589142,,,,,,,
1504196111.039040,-0.001406,0.412693,-1.584724,0.036794,-0.011261,-0.010449,-0.001288,-0.401077,-0.916043,0.019935,0.018418,0.008420,12.880098,-2.913632,-29.887787,,,,,,,
1504196111.049050,-0.000977,0.412880,-1.585025,0.036883,-0.001663,-0.013669,-0.000895,-0.401249,-0.915968,0.019816,0.016239,0.010085,12.880098,-2.913632,-29.887787,,,,,,,
1504196111.059029,-0.000475,0.412988,-1.585371,0.019826,-0.001514,-0.016901,-0.000435,-0.401348,-0.915926,0.021615,0.013027,0.008363,12.655596,-3.064786,-29.812256,,,,,,,
1504196111.069039,-0.000054,0.412865,-1.585782,-0.006888,-0.010871,-0.024403,-0.000049,-0.401235,-0.915975,0.021076,0.010228,0.003561,12.655596,-3.064786,-29.812256,,,,,,,
1504196111.079049,0.000384,0.412513,-1.586269,-0.023890,-0.006455,-0.031912,0.000352,-0.400912,-0.916116,0.020599,0.009433,-0.002234,12.805147,-2.839261,-29.738556,,,,,,,
1504196111.089059,0.000891,0.412044,-1.586767,-0.032359,0.002144,-0.031942,0.000816,-0.400483,-0.916304,0.018303,0.010331,0.000944,12.805147,-2.839261,-29.738556,,,,,,,
1504196111.099068,0.001427,0.411461,-1.587169,-0.039785,0.013920,-0.022370,0.001308,-0.399949,-0.916537,0.015705,0.012543,0.001833,12.655367,-2.840238,-29.588928,,,,,,,
1504196111.109078,0.001926,0.410909,-1.587322,-0.036619,0.024529,0.001098,0.001766,-0.399442,-0.916757,0.013096,0.010084,-0.001670,12.655367,-2.840238,-29.588928,,,,,,,
1504196111.119088,0.002367,0.410432,-1.587230,-0.029221,0.028713,0.021383,0.002171,-0.399005,-0.916946,0.012325,0.010822,0.000930,12.654772,-2.689939,-29.740051,,,,,,,
1504196111.129098,0.002760,0.410039,-1.586993,-0.019703,0.026493,0.034212,0.002531,-0.398645,-0.917102,0.013323,0.011499,0.000705,12.654772,-2.689939,-29.740051,,,,,,,
1504196111.139107,0.003119,0.409816,-1.586659,0.000545,0.028453,0.041714,0.002861,-0.398441,-0.917190,0.013466,0.010959,-0.000306,12.805513,-2.989270,-29.737427,,,,,,,
1504196111.149117,0.003387,0.409681,-1.586254,0.006871,0.022006,0.046005,0.003106,-0.398317,-0.917243,0.011954,0.012911,0.001837,12.805513,-2.989270,-29.737427,,,,,,,
1504196111.159127,0.003586,0.409546,-1.585874,0.003584,0.010317,0.043884,0.003289,-0.398193,-0.917296,0.013816,0.010375,-0.003572,13.105059,-2.763059,-29.663361,,,,,,,
1504196111.169137,0.003706,0.409376,-1.585530,-0.001814,0.000778,0.040688,0.003400,-0.398037,-0.917363,0.014041,0.007107,-0.007640,13.105059,-2.763059,-29.663361,,,,,,,
1504196111.179147,0.003738,0.409161,-1.585205,-0.009359,-0.009811,0.038558,0.003430,-0.397840,-0.917448,0.014301,0.006635,-0.005953,12.729845,-2.764447,-29.814301,,,,,,,
1504196111.189156,0.003618,0.408848,-1.584958,-0.023372,-0.032061,0.031101,0.003320,-0.397553,-0.917573,0.015449,0.005127,-0.004958,12.729845,-2.764447,-29.814301,,,,,,,
1504196111.199166,0.003427,0.408505,-1.584868,-0.022290,-0.040573,0.014039,0.003145,-0.397237,-0.917711,0.015501,0.004888,-0.005919,12.655138,-2.839932,-29.738922,,,,,,,
1504196111.209176,0.003337,0.408182,-1.584982,-0.009332,-0.032133,-0.004100,0.003063,-0.396941,-0.917839,0.014104,0.009124,-0.005242,12.655138,-2.839932,-29.738922,,,,,,,
1504196111.219186,0.003413,0.407995,-1.585169,0.005882,-0.002411,-0.012667,0.003133,-0.396770,-0.917913,0.007502,0.011562,-0.002848,12.805223,-2.914121,-29.813019,,,,,,,
1504196111.229195,0.003641,0.407932,-1.585300,0.014657,0.028418,-0.011641,0.003342,-0.396712,-0.917937,-0.001526,0.010497,-0.004319,12.805223,-2.914121,-29.813019,,,,,,,
1504196111.239205,0.003851,0.408091,-1.585333,0.045498,0.020695,-0.004103,0.003535,-0.396857,-0.917873,-0.005396,0.007377,-0.005390,12.655413,-2.989789,-29.812805,,,,,,,
1504196111.249215,0.003855,0.408545,-1.585463,0.011167,-0.009914,-0.014781,0.003537,-0.397275,-0.917693,-0.003095,-0.001712,0.027785,12.655413,-2.989789,-29.812805,,,,,,,
1504196111.259225,0.003822,0.408513,-1.585604,-0.018602,0.003118,-0.014855,0.003507,-0.397245,-0.917706,-0.001997,-0.006273,-0.000477,12.880816,-3.064084,-29.661682,,,,,,,
1504196111.269234,0.004039,0.408355,-1.585692,-0.043866,0.044883,-0.016038,0.003707,-0.397100,-0.917768,-0.011016,-0.011057,0.004300,12.880816,-3.064084,-29.661682,,,,,,,
1504196111.279244,0.004560,0.408049,-1.585829,-0.071458,0.062160,-0.017181,0.004186,-0.396820,-0.917887,-0.007787,-0.017106,0.009959,12.655703,-3.064939,-29.737244,,,,,,,
1504196111.289254,0.005041,0.407423,-1.585974,-0.076838,0.053682,-0.021445,0.004629,-0.396244,-0.918133,-0.008550,-0.010464,-0.003070,12.655703,-3.064939,-29.737244,,,,,,,
1504196111.299233,0.005464,0.406921,-1.586246,-0.058799,0.034362,-0.032052,0.005018,-0.395784,-0.918330,-0.005857,-0.009352,0.000712,12.880068,-2.764081,-29.663910,,,,,,,
1504196111.309243,0.005885,0.406592,-1.586674,-0.030039,0.022414,-0.041588,0.005405,-0.395482,-0.918458,-0.000278,-0.002666,0.001847,12.880068,-2.764081,-29.663910,,,,,,,
1504196111.319253,0.006260,0.406429,-1.587160,-0.005456,0.023284,-0.049019,0.005750,-0.395331,-0.918521,-0.003278,0.003837,0.002429,12.805147,-2.839261,-29.738556,,,,,,,
1504196111.329262,0.006687,0.406391,-1.587677,0.003157,0.031739,-0.051154,0.006143,-0.395297,-0.918533,-0.004006,0.004764,0.002731,12.805147,-2.839261,-29.738556,,,,,,,
1504196111.339272,0.007137,0.406373,-1.588137,0.001006,0.034944,-0.042624,0.006556,-0.395280,-0.918537,-0.004587,0.002656,0.001194,13.104570,-2.612912,-29.739502,,,,,,,
1504196111.349282,0.007567,0.406335,-1.588430,-0.005575,0.026450,-0.020205,0.006951,-0.395246,-0.918549,0.000236,-0.000994,0.000580,13.104570,-2.612912,-29.739502,,,,,,,
1504196111.359292,0.007808,0.406257,-1.588526,-0.010041,0.011552,-0.004175,0.007172,-0.395174,-0.918578,0.001312,-0.001921,0.000304,13.029802,-2.837811,-29.963013,,,,,,,
1504196111.369302,0.007764,0.406235,-1.588492,0.000289,-0.021581,0.010845,0.007132,-0.395154,-0.918587,0.006570,-0.000156,0.002480,13.029802,-2.837811,-29.963013,,,,,,,
1504196111.379311,0.007554,0.406361,-1.588494,0.019376,-0.040908,0.003440,0.006939,-0.395269,-0.918539,0.009755,0.002279,0.003958,12.805071,-2.764417,-29.664093,,,,,,,
1504196111.389321,0.007345,0.406589,-1.588707,0.030104,-0.047365,-0.018946,0.006746,-0.395479,-0.918450,0.009977,0.005632,0.006722,12.805071,-2.764417,-29.664093,,,,,,,
1504196111.399331,0.007237,0.406813,-1.589170,0.025993,-0.040913,-0.040313,0.006646,-0.395685,-0.918362,0.009024,0.007226,0.007642,12.955370,-2.838895,-29.588196,,,,,,,
1504196111.409341,0.007222,0.406976,-1.589670,0.015421,-0.028038,-0.039287,0.006632,-0.395835,-0.918298,0.006201,0.003653,0.004449,12.955370,-2.838895,-29.588196,,,,,,,
1504196111.419350,0.007146,0.407068,-1.589949,0.007937,-0.017341,-0.019038,0.006562,-0.395919,-0.918262,0.000885,0.001662,0.003421,13.105852,-2.988370,-29.511688,,,,,,,
1504196111.429360,0.006961,0.407132,-1.590004,0.006776,-0.018415,-0.001959,0.006392,-0.395977,-0.918238,-0.001661,0.000683,0.001765,13.105852,-2.988370,-29.511688,,,,,,,
1504196111.439370,0.006658,0.407275,-1.589946,0.023684,-0.033482,0.006636,0.006113,-0.396108,-0.918183,0.000295,0.003118,0.001725,12.955370,-3.063138,-29.961487,,,,,,,
1504196111.449380,0.006253,0.407569,-1.589931,0.038543,-0.046385,0.001347,0.005741,-0.396379,-0.918069,0.002926,0.006624,0.006295,12.955370,-3.063138,-29.961487,,,,,,,
1504196111.459389,0.005831,0.407857,-1.590038,0.033207,-0.053787,-0.010391,0.005352,-0.396643,-0.917957,0.003788,0.006644,0.005543,12.880938,-3.064221,-29.586700,,,,,,,
1504196111.469399,0.005449,0.407969,-1.590318,0.011985,-0.050396,-0.028580,0.005001,-0.396746,-0.917915,0.001957,0.005358,0.002815,12.880938,-3.064221,-29.586700,,,,,,,
1504196111.479409,0.005134,0.407888,-1.590722,-0.011363,-0.042732,-0.041443,0.004712,-0.396672,-0.917948,-0.001477,0.002156,0.000361,12.880587,-3.063779,-29.811707,,,,,,,
1504196111.489419,0.004848,0.407614,-1.591203,-0.037943,-0.037177,-0.051105,0.004451,-0.396420,-0.918059,-0.006755,-0.002094,0.002104,12.880587,-3.063779,-29.811707,,,,,,,
1504196111.499429,0.004594,0.407211,-1.591788,-0.050665,-0.033866,-0.061807,0.004219,-0.396050,-0.918219,-0.009208,-0.003135,0.005927,12.730364,-2.839902,-29.588745,,,,,,,
1504196111.509438,0.004387,0.406806,-1.592411,-0.043143,-0.028600,-0.063937,0.004029,-0.395678,-0.918380,-0.009583,-0.002378,0.005752,12.730364,-2.839902,-29.588745,,,,,,,
1504196111.519448,0.004213,0.406579,-1.593026,-0.021731,-0.020254,-0.064981,0.003869,-0.395470,-0.918471,-0.012170,0.000695,0.008223,12.879457,-2.613782,-29.815063,,,,,,,
1504196111.529458,0.004065,0.406507,-1.593625,-0.004640,-0.017202,-0.063889,0.003733,-0.395403,-0.918500,-0.012965,0.004915,0.012967,12.879457,-2.613782,-29.815063,,,,,,,
1504196111.539468,0.003979,0.406471,-1.594233,-0.002481,-0.014025,-0.063891,0.003655,-0.395371,-0.918514,-0.010934,0.005142,0.009548,12.730440,-2.914746,-29.663177,,,,,,,
1504196111.549447,0.004052,0.406377,-1.594913,-0.013010,-0.001146,-0.071403,0.003722,-0.395284,-0.918551,-0.009322,0.002447,0.005526,12.730440,-2.914746,-29.663177,,,,,,,
1504196111.559457,0.004319,0.406165,-1.595757,-0.036353,0.005454,-0.086399,0.003967,-0.395089,-0.918634,-0.006836,-0.001593,0.009348,12.654726,-2.764646,-29.889496,,,,,,,
1504196111.569466,0.004826,0.405671,-1.596828,-0.062871,0.014214,-0.103538,0.004435,-0.394636,-0.918827,-0.002909,-0.001559,0.009037,12.654726,-2.764646,-29.889496,,,,,,,
1504196111.579476,0.005604,0.405047,-1.598041,-0.076537,0.033518,-0.113202,0.005150,-0.394062,-0.919069,0.000587,-0.004757,0.008364,12.729799,-2.614896,-29.590424,,,,,,,
1504196111.589486,0.006581,0.404457,-1.599290,-0.072109,0.052664,-0.114295,0.006050,-0.393520,-0.919296,-0.000191,-0.004078,0.013916,12.729799,-2.614896,-29.590424,,,,,,,
1504196111.599496,0.007714,0.403922,-1.600490,-0.059232,0.066403,-0.106825,0.007094,-0.393028,-0.919499,0.001100,-0.000038,0.014043,12.655260,-2.840085,-29.663910,,,,,,,
1504196111.609505,0.008885,0.403433,-1.601582,-0.045435,0.065212,-0.093990,0.008171,-0.392578,-0.919683,0.003929,0.004119,0.010884,12.655260,-2.840085,-29.663910,,,,,,,
1504196111.619515,0.009907,0.403012,-1.602561,-0.039313,0.039574,-0.078991,0.009114,-0.392191,-0.919839,0.010723,0.004663,0.009164,12.880098,-2.689374,-29.514496,,,,,,,
1504196111.629525,0.010644,0.402571,-1.603490,-0.046071,-0.000866,-0.072528,0.009793,-0.391785,-0.920005,0.017017,0.001404,0.005393,12.880098,-2.689374,-29.514496,,,,,,,
1504196111.639535,0.011097,0.402030,-1.604491,-0.049570,-0.041318,-0.077801,0.010212,-0.391288,-0.920212,0.024319,0.001517,-0.001404,12.730257,-2.839749,-29.663727,,,,,,,
1504196111.649544,0.011310,0.401463,-1.605592,-0.043346,-0.070128,-0.086269,0.010411,-0.390765,-0.920431,0.026470,0.005252,-0.002496,12.730257,-2.839749,-29.663727,,,,,,,
1504196111.659554,0.011260,0.400946,-1.606643,-0.025360,-0.084130,-0.078744,0.010367,-0.390289,-0.920634,0.024377,0.011032,-0.003545,12.954653,-2.688443,-29.814331,,,,,,,
1504196111.669564,0.011015,0.400615,-1.607521,0.002355,-0.080104,-0.068030,0.010142,-0.389984,-0.920766,0.015508,0.014908,-0.005306,12.954653,-2.688443,-29.814331,,,,,,,
1504196111.679574,0.010797,0.400536,-1.608205,0.022757,-0.054710,-0.054165,0.009942,-0.389912,-0.920798,0.008246,0.015278,-0.002252,12.879381,-2.538922,-29.740631,,,,,,,
1504196111.689584,0.010780,0.400600,-1.608772,0.029404,-0.019605,-0.047812,0.009927,-0.389971,-0.920774,0.003791,0.013582,0.000867,12.879381,-2.538922,-29.740631,,,,,,,
1504196111.699593,0.011066,0.400725,-1.609312,0.027622,0.021972,-0.052158,0.010189,-0.390086,-0.920722,-0.001888,0.009242,-0.000695,13.104158,-2.537610,-29.890076,,,,,,,
1504196111.709603,0.011704,0.400819,-1.610017,0.016186,0.047660,-0.071437,0.010776,-0.390173,-0.920679,-0.004108,0.006781,0.002267,13.104158,-2.537610,-29.890076,,,,,,,
1504196111.719613,0.012506,0.400806,-1.610935,-0.004076,0.038254,-0.088534,0.011515,-0.390161,-0.920675,0.000769,0.002114,0.003499,12.954576,-2.613584,-29.739868,,,,,,,
1504196111.729623,0.013174,0.400666,-1.612003,-0.017096,0.006403,-0.095972,0.012130,-0.390031,-0.920722,0.006607,-0.001860,-0.001062,12.954576,-2.613584,-29.739868,,,,,,,
1504196111.739632,0.013537,0.400512,-1.613086,-0.020616,-0.030866,-0.091643,0.012465,-0.389890,-0.920777,0.009965,-0.003406,0.000947,13.104952,-2.762921,-29.738373,,,,,,,
1504196111.749642,0.013653,0.400417,-1.614056,-0.020784,-0.044727,-0.079878,0.012573,-0.389803,-0.920813,0.010346,-0.006194,0.004156,13.104952,-2.762921,-29.738373,,,,,,,
1504196111.759652,0.013720,0.400251,-1.614878,-0.031430,-0.033994,-0.067106,0.012636,-0.389650,-0.920876,0.008421,-0.004332,0.007378,12.954882,-2.688733,-29.664307,,,,,,,
1504196111.769662,0.014026,0.399836,-1.615617,-0.056808,-0.002885,-0.062936,0.012919,-0.389267,-0.921034,0.008413,-0.003402,0.007307,12.954882,-2.688733,-29.664307,,,,,,,
1504196111.779671,0.014742,0.399126,-1.616333,-0.080975,0.044201,-0.061993,0.013582,-0.388613,-0.921301,0.006391,-0.002744,0.003851,12.878786,-2.388623,-29.891754,,,,,,,
1504196111.789681,0.015920,0.398279,-1.616988,-0.089225,0.085820,-0.052475,0.014673,-0.387832,-0.921613,0.009314,-0.002518,0.001737,12.878786,-2.388623,-29.891754,,,,,,,
1504196111.799691,0.017315,0.397417,-1.617576,-0.088079,0.099659,-0.046093,0.015965,-0.387038,-0.921926,0.010494,-0.001726,0.002767,13.104540,-2.463361,-29.515625,,,,,,,
1504196111.809670,0.018581,0.396620,-1.618111,-0.077709,0.067601,-0.037480,0.017138,-0.386303,-0.922213,0.015623,-0.001072,0.002275,13.104540,-2.463361,-29.515625,,,,,,,
1504196111.819680,0.019338,0.395993,-1.618602,-0.062227,0.005668,-0.032009,0.017841,-0.385725,-0.922441,0.021832,-0.003222,-0.000258,12.879229,-2.389218,-29.591766,,,,,,,
1504196111.829690,0.019467,0.395491,-1.619061,-0.046762,-0.058395,-0.026533,0.017963,-0.385262,-0.922633,0.024120,-0.002128,-0.001501,12.879229,-2.389218,-29.591766,,,,,,,
1504196111.839700,0.019102,0.395144,-1.619502,-0.031013,-0.091551,-0.028583,0.017629,-0.384941,-0.922773,0.020533,-0.001274,-0.001651,12.954317,-2.463742,-29.665985,,,,,,,
1504196111.849722,0.018537,0.394953,-1.619903,-0.010748,-0.091715,-0.027482,0.017109,-0.384765,-0.922856,0.014675,0.000762,-0.003276,12.954317,-2.463742,-29.665985,,,,,,,
1504196111.859732,0.017988,0.394927,-1.620204,0.013935,-0.069546,-0.021074,0.016602,-0.384741,-0.922875,0.007064,0.003775,-0.004111,12.803560,-2.164411,-29.668610,,,,,,,
1504196111.869742,0.017671,0.395198,-1.620369,0.044060,-0.031443,-0.010416,0.016308,-0.384991,-0.922776,0.002430,0.005154,-0.002974,12.803560,-2.164411,-29.668610,,,,,,,
1504196111.879752,0.017740,0.395737,-1.620435,0.062471,0.008889,-0.000849,0.016368,-0.385489,-0.922567,0.003163,0.003775,0.000341,12.654085,-2.464795,-29.816742,,,,,,,
1504196111.889761,0.018053,0.396303,-1.620492,0.046579,0.022874,-0.000901,0.016653,-0.386011,-0.922344,0.005762,0.000528,0.005306,12.654085,-2.464795,-29.816742,,,,,,,
1504196111.899771,0.018518,0.396524,-1.620587,0.001792,0.026442,0.000082,0.017080,-0.386214,-0.922251,0.011332,-0.005204,-0.000997,12.654131,-2.390088,-29.667297,,,,,,,
1504196111.909781,0.019073,0.396278,-1.620655,-0.049327,0.038587,0.001039,0.017594,-0.385987,-0.922336,0.012252,-0.010680,-0.007321,12.654131,-2.390088,-29.667297,,,,,,,
1504196111.919791,0.019772,0.395628,-1.620695,-0.085459,0.057001,0.002011,0.018244,-0.385388,-0.922574,0.011053,-0.012714,-0.010775,12.654238,-2.390241,-29.592316,,,,,,,
1504196111.929800,0.020610,0.394804,-1.620770,-0.087467,0.068748,-0.004418,0.019023,-0.384628,-0.922876,0.009725,-0.008363,-0.010794,12.654238,-2.390241,-29.592316,,,,,,,
1504196111.939810,0.021564,0.394066,-1.620943,-0.070377,0.066487,-0.011857,0.019910,-0.383946,-0.923141,0.011890,-0.005031,-0.005311,12.729204,-2.464597,-29.741547,,,,,,,
1504196111.949820,0.022474,0.393571,-1.621196,-0.042702,0.055611,-0.016060,0.020754,-0.383489,-0.923312,0.013395,-0.002497,-0.003766,12.729204,-2.464597,-29.741547,,,,,,,
1504196111.959830,0.023302,0.393296,-1.621462,-0.018224,0.047954,-0.016005,0.021521,-0.383235,-0.923400,0.013849,-0.000677,-0.005906,12.654314,-2.465085,-29.666718,,,,,,,
1504196111.969839,0.024023,0.393223,-1.621734,-0.004475,0.032926,-0.015956,0.022187,-0.383167,-0.923412,0.015227,-0.003109,-0.006046,12.654314,-2.465085,-29.666718,,,,,,,
1504196111.979849,0.024636,0.393171,-1.622072,-0.002389,0.022264,-0.023407,0.022754,-0.383120,-0.923418,0.015500,-0.003019,-0.010480,12.578707,-2.315122,-29.818054,,,,,,,
1504196111.989859,0.025173,0.393144,-1.622419,0.005016,0.015811,-0.021249,0.023250,-0.383095,-0.923416,0.016133,-0.002891,-0.015350,12.578707,-2.315122,-29.818054,,,,,,,
1504196111.999869,0.025623,0.393182,-1.622726,0.012416,0.009357,-0.018024,0.023665,-0.383130,-0.923391,0.014101,-0.000720,-0.010920,12.653826,-2.314939,-29.742859,,,,,,,
1504196112.009879,0.025970,0.393227,-1.622990,0.011320,0.007235,-0.015888,0.023985,-0.383171,-0.923366,0.011934,0.000878,-0.007649,12.653826,-2.314939,-29.742859,,,,,,,
1504196112.019888,0.026288,0.393237,-1.623182,0.008050,0.004060,-0.007350,0.024279,-0.383180,-0.923355,0.012647,0.000612,-0.009751,12.729876,-2.689755,-29.664856,,,,,,,
1504196112.029898,0.026579,0.393220,-1.623305,-0.002606,0.008408,-0.003108,0.024547,-0.383165,-0.923354,0.012028,-0.001296,-0.006959,12.729876,-2.689755,-29.664856,,,,,,,
1504196112.039908,0.026950,0.393051,-1.623433,-0.016375,0.019184,-0.006354,0.024892,-0.383008,-0.923410,0.009944,-0.001574,-0.009742,12.653521,-2.239789,-29.818451,,,,,,,
1504196112.049918,0.027483,0.392790,-1.623601,-0.016224,0.036238,-0.009587,0.025387,-0.382767,-0.923496,0.010105,-0.000213,-0.014004,12.653521,-2.239789,-29.818451,,,,,,,
1504196112.059897,0.028059,0.392601,-1.623712,-0.005568,0.039341,-0.002103,0.025921,-0.382592,-0.923554,0.008991,0.002725,-0.009399,12.728792,-2.389295,-29.892120,,,,,,,
1504196112.069907,0.028477,0.392513,-1.623696,0.008107,0.023234,0.010757,0.026308,-0.382512,-0.923576,0.009367,0.004796,-0.008889,12.728792,-2.389295,-29.892120,,,,,,,
1504196112.079916,0.028646,0.392528,-1.623622,0.016411,-0.003476,0.014019,0.026464,-0.382525,-0.923566,0.010722,0.005252,-0.009280,12.879122,-2.389081,-29.666748,,,,,,,
1504196112.089926,0.028505,0.392612,-1.623533,0.027900,-0.033405,0.015158,0.026332,-0.382603,-0.923538,0.010915,0.006825,-0.010346,12.879122,-2.389081,-29.666748,,,,,,,
1504196112.099936,0.028222,0.392791,-1.623456,0.038548,-0.037750,0.011981,0.026069,-0.382769,-0.923476,0.008766,0.008349,-0.008195,12.879122,-2.389081,-29.666748,,,,,,,
1504196112.109946,0.027955,0.392977,-1.623376,0.038680,-0.022829,0.008751,0.025821,-0.382940,-0.923412,0.002530,0.010030,-0.006611,12.879122,-2.389081,-29.666748,,,,,,,
1504196112.119955,0.027818,0.393068,-1.623251,0.030355,0.003879,0.008689,0.025693,-0.383024,-0.923381,-0.003843,0.011869,-0.007054,12.954531,-2.688291,-29.889313,,,,,,,
1504196112.129965,0.027751,0.393084,-1.623048,0.023024,0.024178,0.012911,0.025632,-0.383039,-0.923376,-0.011517,0.013471,-0.004343,12.954531,-2.688291,-29.889313,,,,,,,
1504196112.139975,0.027756,0.393044,-1.622773,0.015595,0.032755,0.018220,0.025637,-0.383002,-0.923392,-0.013460,0.013388,-0.000375,12.878588,-2.313626,-29.892303,,,,,,,
1504196112.149985,0.027685,0.393043,-1.622354,0.018651,0.026315,0.036383,0.025571,-0.383001,-0.923394,-0.012463,0.013449,0.003853,12.878588,-2.313626,-29.892303,,,,,,,
1504196112.159994,0.027460,0.393128,-1.621757,0.028096,0.015563,0.050295,0.025362,-0.383079,-0.923367,-0.011690,0.014427,0.006482,12.879534,-2.464368,-29.516174,,,,,,,
1504196112.170004,0.027124,0.393331,-1.621130,0.038658,0.003750,0.052469,0.025050,-0.383267,-0.923298,-0.009867,0.015210,0.010166,12.879534,-2.464368,-29.516174,,,,,,,
1504196112.180014,0.026896,0.393579,-1.620554,0.046137,0.004754,0.051412,0.024836,-0.383496,-0.923208,-0.002986,0.017545,0.010687,12.879793,-2.614224,-29.590057,,,,,,,
1504196112.190024,0.026813,0.393890,-1.620018,0.045158,0.015420,0.050324,0.024757,-0.383783,-0.923091,-0.000312,0.017862,0.015361,12.879793,-2.614224,-29.590057,,,,,,,
1504196112.200034,0.026830,0.394159,-1.619533,0.029214,0.019819,0.044951,0.024770,-0.384032,-0.922987,0.000865,0.013411,0.017882,12.879305,-2.464078,-29.666168,,,,,,,
1504196112.210043,0.026905,0.394220,-1.619143,-0.002828,0.011567,0.038505,0.024838,-0.384088,-0.922962,0.004825,0.006723,0.014408,12.879305,-2.464078,-29.666168,,,,,,,
1504196112.220053,0.026927,0.394044,-1.618809,-0.032825,-0.005231,0.036347,0.024860,-0.383926,-0.923029,0.009900,0.000564,0.010630,12.729006,-2.389600,-29.742126,,,,,,,
1504196112.230063,0.026819,0.393699,-1.618500,-0.053269,-0.026372,0.037416,0.024764,-0.383607,-0.923164,0.013871,-0.004683,0.010887,12.729006,-2.389600,-29.742126,,,,,,,
1504196112.240073,0.026613,0.393228,-1.618172,-0.065056,-0.031601,0.039539,0.024579,-0.383172,-0.923350,0.014926,-0.006125,0.008128,12.879198,-2.463925,-29.741180,,,,,,,
1504196112.250082,0.026342,0.392729,-1.617804,-0.054406,-0.032754,0.041694,0.024334,-0.382711,-0.923548,0.012531,-0.002024,0.007700,12.879198,-2.463925,-29.741180,,,,,,,
1504196112.260092,0.026002,0.392308,-1.617313,-0.033102,-0.029742,0.053466,0.024024,-0.382322,-0.923717,0.009164,0.005613,0.007457,12.954241,-2.388883,-29.591583,,,,,,,
1504196112.270102,0.025570,0.392001,-1.616595,-0.010672,-0.015027,0.071624,0.023628,-0.382039,-0.923844,0.002312,0.011540,0.004044,12.954241,-2.388883,-29.591583,,,,,,,
1504196112.280112,0.025034,0.391947,-1.615625,0.019111,-0.012099,0.094085,0.023133,-0.381989,-0.923877,-0.001664,0.013397,0.003544,12.954454,-2.389188,-29.441589,,,,,,,
1504196112.290121,0.024479,0.392140,-1.614470,0.042587,-0.002718,0.107986,0.022618,-0.382167,-0.923817,-0.003987,0.013606,0.001758,12.954454,-2.389188,-29.441589,,,,,,,
1504196112.300131,0.023982,0.392437,-1.613284,0.044850,0.011119,0.103696,0.022157,-0.382441,-0.923714,-0.007234,0.012095,0.000679,12.579241,-2.390576,-29.592499,,,,,,,
1504196112.310110,0.023571,0.392627,-1.612234,0.027816,0.008074,0.090863,0.021775,-0.382617,-0.923650,-0.006227,0.010028,-0.000437,12.579241,-2.390576,-29.592499,,,,,,,
1504196112.320120,0.023268,0.392623,-1.611323,0.002246,0.006164,0.080148,0.021496,-0.382613,-0.923658,-0.002086,0.005050,-0.004732,12.954500,-2.538739,-29.665436,,,,,,,
1504196112.330130,0.022987,0.392379,-1.610527,-0.028604,0.009627,0.067280,0.021238,-0.382388,-0.923758,-0.003706,0.000506,-0.005167,12.954500,-2.538739,-29.665436,,,,,,,
1504196112.340140,0.022793,0.391954,-1.609837,-0.042335,0.020406,0.056563,0.021063,-0.381995,-0.923924,-0.005377,0.000144,-0.004771,13.029573,-2.613248,-29.739685,,,,,,,
1504196112.350150,0.022775,0.391601,-1.609149,-0.022894,0.050080,0.056545,0.021049,-0.381669,-0.924059,-0.010597,0.002290,-0.005369,13.029573,-2.613248,-29.739685,,,,,,,
1504196112.360159,0.022886,0.391602,-1.608294,0.019952,0.080609,0.071510,0.021152,-0.381669,-0.924057,-0.019336,0.006913,-0.000412,13.029314,-2.463407,-29.665802,,,,,,,
1504196112.370169,0.022973,0.391967,-1.607195,0.058332,0.089856,0.091843,0.021229,-0.382007,-0.923916,-0.025120,0.011829,0.005733,13.029314,-2.463407,-29.665802,,,,,,,
1504196112.380179,0.022804,0.392671,-1.605918,0.087979,0.068282,0.102608,0.021066,-0.382658,-0.923650,-0.027261,0.010206,0.003041,12.878222,-2.163632,-29.893433,,,,,,,
1504196112.390189,0.022499,0.393515,-1.604711,0.093103,0.039468,0.098400,0.020778,-0.383437,-0.923333,-0.019801,0.008025,0.001535,12.878222,-2.163632,-29.893433,,,,,,,
1504196112.400198,0.022018,0.394401,-1.603676,0.080047,0.001222,0.087771,0.020326,-0.384255,-0.923003,-0.010667,0.002618,0.004317,12.879869,-2.689069,-29.664490,,,,,,,
1504196112.410208,0.021328,0.395020,-1.602696,0.039278,-0.027215,0.087751,0.019684,-0.384827,-0.922779,-0.006439,-0.002487,0.006962,12.879869,-2.689069,-29.664490,,,,,,,
1504196112.420218,0.020470,0.395132,-1.601629,-0.016308,-0.035292,0.096209,0.018892,-0.384930,-0.922752,-0.007036,-0.005496,0.006187,13.029390,-2.538251,-29.740265,,,,,,,
1504196112.430228,0.019543,0.394820,-1.600355,-0.063140,-0.013612,0.108900,0.018038,-0.384642,-0.922889,-0.014529,-0.010072,0.007179,13.029390,-2.538251,-29.740265,,,,,,,
1504196112.440237,0.018786,0.394280,-1.598968,-0.096018,0.014354,0.115200,0.017344,-0.384144,-0.923110,-0.018580,-0.013897,0.016586,12.955065,-2.987988,-30.037048,,,,,,,
1504196112.450247,0.018251,0.393679,-1.597547,-0.100038,0.043155,0.113010,0.016854,-0.383589,-0.923350,-0.022530,-0.014650,0.022853,12.955065,-2.987988,-30.037048,,,,,,,
1504196112.460257,0.018013,0.393133,-1.596284,-0.085826,0.071824,0.091638,0.016638,-0.383084,-0.923564,-0.026907,-0.013187,0.022288,12.879015,-2.613187,-30.115051,,,,,,,
1504196112.470267,0.018112,0.392760,-1.595320,-0.055655,0.091844,0.064973,0.016732,-0.382740,-0.923705,-0.025643,-0.006665,0.021391,12.879015,-2.613187,-30.115051,,,,,,,
1504196112.480276,0.018395,0.392654,-1.594612,-0.020336,0.092633,0.044754,0.016994,-0.382642,-0.923740,-0.024715,-0.002001,0.019703,12.954119,-2.612988,-30.039856,,,,,,,
1504196112.490286,0.018556,0.392846,-1.594057,0.002961,0.063675,0.034174,0.017142,-0.382819,-0.923664,-0.023169,-0.004266,0.018253,12.954119,-2.612988,-30.039856,,,,,,,
1504196112.500296,0.018352,0.393130,-1.593599,0.013264,0.013509,0.027877,0.016951,-0.383082,-0.923559,-0.020003,-0.006933,0.009664,13.029955,-2.763257,-29.738556,,,,,,,
1504196112.510306,0.017676,0.393431,-1.593194,0.010744,-0.036556,0.025828,0.016325,-0.383359,-0.923455,-0.017164,-0.008776,0.005349,13.029955,-2.763257,-29.738556,,,,,,,
1504196112.520316,0.016642,0.393674,-1.592879,0.002964,-0.081241,0.017356,0.015368,-0.383584,-0.923378,-0.012820,-0.010550,0.004723,13.180330,-2.912580,-29.737061,,,,,,,
1504196112.530325,0.015401,0.393897,-1.592721,0.001790,-0.103598,0.003518,0.014221,-0.383790,-0.923311,-0.011780,-0.012267,0.002351,13.180330,-2.912580,-29.737061,,,,,,,
1504196112.540335,0.014240,0.394116,-1.592730,0.006240,-0.091898,-0.013572,0.013148,-0.383992,-0.923243,-0.011821,-0.009181,0.002619,12.879534,-2.688626,-29.889496,,,,,,,
1504196112.550345,0.013439,0.394314,-1.592945,0.013033,-0.055706,-0.033904,0.012407,-0.384175,-0.923177,-0.013476,-0.003689,0.004278,12.879534,-2.688626,-29.889496,,,,,,,
1504196112.560324,0.013139,0.394563,-1.593329,0.027403,-0.002533,-0.048914,0.012129,-0.384405,-0.923085,-0.017866,-0.000529,0.000340,12.880022,-2.838773,-29.813385,,,,,,,
1504196112.570334,0.013375,0.394849,-1.593759,0.033188,0.051763,-0.052200,0.012346,-0.384669,-0.922972,-0.020951,0.003230,0.001280,12.880022,-2.838773,-29.813385,,,,,,,
1504196112.580344,0.013954,0.395030,-1.594099,0.018409,0.079572,-0.039464,0.012878,-0.384836,-0.922895,-0.019867,0.003351,0.000684,12.954576,-2.837842,-30.113190,,,,,,,
1504196112.590353,0.014617,0.394991,-1.594326,-0.006152,0.082957,-0.029904,0.013491,-0.384800,-0.922901,-0.017321,-0.001842,-0.009456,12.954576,-2.837842,-30.113190,,,,,,,
1504196112.600363,0.015288,0.394801,-1.594566,-0.020115,0.071348,-0.029907,0.014112,-0.384625,-0.922965,-0.010984,-0.006321,-0.013482,13.179903,-2.837277,-29.887634,,,,,,,
1504196112.610373,0.015916,0.394655,-1.594945,-0.015995,0.046814,-0.039463,0.014692,-0.384490,-0.923012,-0.003416,-0.006090,-0.007423,13.179903,-2.837277,-29.887634,,,,,,,
1504196112.620383,0.016466,0.394621,-1.595448,-0.000102,0.027512,-0.047940,0.015199,-0.384459,-0.923017,0.000853,-0.002947,-0.002795,13.105028,-2.837766,-29.812836,,,,,,,
1504196112.630392,0.016840,0.394822,-1.596028,0.023215,0.006011,-0.051065,0.015544,-0.384644,-0.922934,0.002202,-0.000686,0.003516,13.105028,-2.837766,-29.812836,,,,,,,
1504196112.640402,0.017069,0.395259,-1.596568,0.044433,-0.005889,-0.045670,0.015752,-0.385047,-0.922763,0.003489,-0.000375,0.006594,13.179338,-2.612287,-29.889313,,,,,,,
1504196112.650412,0.017264,0.395809,-1.597053,0.048758,0.001529,-0.042463,0.015929,-0.385555,-0.922547,0.001039,-0.000584,0.009385,13.179338,-2.612287,-29.889313,,,,,,,
1504196112.660422,0.017627,0.396354,-1.597522,0.039359,0.026116,-0.043590,0.016260,-0.386058,-0.922331,-0.000330,-0.002996,0.009932,13.105028,-2.837766,-29.812836,,,,,,,
1504196112.670432,0.018336,0.396705,-1.598019,0.020424,0.058243,-0.045815,0.016911,-0.386381,-0.922184,0.000453,-0.003863,0.005879,13.105028,-2.837766,-29.812836,,,,,,,
1504196112.680441,0.019351,0.396892,-1.598523,0.006800,0.088193,-0.046958,0.017845,-0.386554,-0.922094,-0.000786,-0.005109,0.001547,12.954348,-2.613294,-29.889862,,,,,,,
1504196112.690451,0.020496,0.396988,-1.599021,0.000427,0.093570,-0.043777,0.018901,-0.386643,-0.922036,0.000157,-0.004486,0.003030,12.954348,-2.613294,-29.889862,,,,,,,
1504196112.700461,0.021488,0.397075,-1.599427,0.004472,0.072215,-0.033059,0.019815,-0.386723,-0.921983,0.002936,-0.003338,0.002672,13.030245,-2.838407,-29.662994,,,,,,,
1504196112.710471,0.022146,0.397262,-1.599764,0.018015,0.035866,-0.025500,0.020420,-0.386895,-0.921898,0.004300,-0.001838,0.003731,13.030245,-2.838407,-29.662994,,,,,,,
1504196112.720480,0.022466,0.397656,-1.600076,0.037936,-0.004794,-0.020058,0.020711,-0.387258,-0.921739,0.009334,-0.000330,0.008164,12.955477,-2.839032,-29.513184,,,,,,,
1504196112.730490,0.022440,0.398195,-1.600387,0.049400,-0.038985,-0.019979,0.020682,-0.387755,-0.921530,0.010537,0.000182,0.011313,12.955477,-2.839032,-29.513184,,,,,,,
1504196112.740500,0.022221,0.398746,-1.600674,0.048252,-0.048564,-0.018897,0.020476,-0.388263,-0.921321,0.008745,0.001255,0.011821,12.955446,-2.913739,-29.662598,,,,,,,
1504196112.750510,0.021907,0.399231,-1.600954,0.032250,-0.050559,-0.022124,0.020183,-0.388710,-0.921139,0.005834,-0.000801,0.013974,12.955446,-2.913739,-29.662598,,,,,,,
1504196112.760519,0.021737,0.399363,-1.601314,-0.003801,-0.030002,-0.033965,0.020025,-0.388832,-0.921091,0.003337,-0.002190,0.008783,13.179903,-2.837277,-29.887634,,,,,,,
1504196112.770529,0.021921,0.399116,-1.601738,-0.042966,0.005491,-0.039433,0.020196,-0.388604,-0.921183,0.002707,-0.004798,0.003642,13.179903,-2.837277,-29.887634,,,,,,,
1504196112.780539,0.022363,0.398611,-1.602155,-0.070424,0.039817,-0.040608,0.020608,-0.388139,-0.921370,-0.002389,-0.006087,0.005126,12.880098,-2.913632,-29.887787,,,,,,,
1504196112.790549,0.023008,0.397866,-1.602452,-0.080968,0.063333,-0.027859,0.021209,-0.387452,-0.921646,-0.003966,-0.004165,0.000442,12.880098,-2.913632,-29.887787,,,,,,,
1504196112.800558,0.023649,0.397204,-1.602565,-0.060757,0.066345,-0.010750,0.021806,-0.386842,-0.921888,-0.004930,-0.001479,-0.000078,12.805483,-2.839719,-29.513550,,,,,,,
1504196112.810538,0.024228,0.396830,-1.602549,-0.025653,0.060715,0.001063,0.022343,-0.386497,-0.922020,-0.003850,0.003166,0.002159,12.805483,-2.839719,-29.513550,,,,,,,
1504196112.820547,0.024567,0.396711,-1.602491,0.001804,0.027451,0.004371,0.022656,-0.386387,-0.922058,-0.001569,0.006886,0.005066,13.105135,-2.837918,-29.737823,,,,,,,
1504196112.830557,0.024530,0.396786,-1.602531,0.021751,-0.019588,-0.006185,0.022622,-0.386456,-0.922030,0.002082,0.007047,0.000659,13.105135,-2.837918,-29.737823,,,,,,,
1504196112.840567,0.024221,0.396937,-1.602738,0.030067,-0.054807,-0.018918,0.022335,-0.386596,-0.921979,0.004398,0.005187,-0.006137,12.955217,-2.913434,-29.812622,,,,,,,
1504196112.850553,0.023679,0.397243,-1.602994,0.038475,-0.071923,-0.021008,0.021833,-0.386877,-0.921873,0.003786,0.001593,-0.005557,12.955217,-2.913434,-29.812622,,,,,,,
1504196112.860563,0.023083,0.397598,-1.603186,0.028933,-0.061194,-0.015707,0.021280,-0.387204,-0.921748,-0.001047,-0.002505,-0.000676,13.179949,-2.762586,-29.738190,,,,,,,
1504196112.870572,0.022546,0.397849,-1.603267,0.015155,-0.045105,-0.008287,0.020784,-0.387436,-0.921662,-0.004853,-0.005096,-0.000915,13.179949,-2.762586,-29.738190,,,,,,,
1504196112.880582,0.022202,0.398042,-1.603224,0.010002,-0.015240,0.003394,0.020465,-0.387614,-0.921595,-0.005953,-0.007711,-0.003668,13.479876,-2.686383,-29.662994,,,,,,,
1504196112.890592,0.022227,0.398278,-1.603048,0.015682,0.033719,0.012925,0.020486,-0.387832,-0.921502,-0.007180,-0.007172,-0.002295,13.330248,-2.837049,-29.662262,,,,,,,
1504196112.900602,0.022582,0.398543,-1.602819,0.021280,0.067768,0.015010,0.020810,-0.388076,-0.921392,-0.010160,-0.003144,-0.000528,13.330248,-2.837049,-29.662262,,,,,,,
1504196112.910611,0.023222,0.398695,-1.602656,0.012882,0.081694,0.009635,0.021399,-0.388216,-0.921320,-0.006567,0.000124,-0.002600,13.330248,-2.837049,-29.662262,,,,,,,
1504196112.920621,0.023895,0.398723,-1.602563,0.004260,0.068980,0.006440,0.022019,-0.388242,-0.921294,-0.001984,-0.000598,-0.008073,13.030245,-2.838407,-29.662994,,,,,,,
1504196112.930631,0.024372,0.398741,-1.602562,0.001911,0.038104,0.000086,0.022458,-0.388258,-0.921277,0.000735,-0.003221,-0.008014,13.030245,-2.838407,-29.662994,,,,,,,
1504196112.940641,0.024535,0.398818,-1.602641,0.003798,0.001868,-0.008386,0.022607,-0.388329,-0.921243,0.002234,-0.004172,-0.004584,13.030184,-2.763547,-29.588562,,,,,,,
1504196112.950650,0.024425,0.398935,-1.602839,0.008891,-0.034394,-0.017920,0.022505,-0.388437,-0.921200,0.004427,-0.004217,-0.002048,13.030184,-2.763547,-29.588562,,,,,,,
1504196112.960660,0.024155,0.399162,-1.603137,0.019496,-0.047259,-0.025351,0.022254,-0.388646,-0.921118,0.004327,-0.003123,0.001319,13.105028,-2.837766,-29.812836,,,,,,,
1504196112.970670,0.023861,0.399526,-1.603426,0.036604,-0.042073,-0.024264,0.021980,-0.388981,-0.920983,0.002358,-0.001049,0.003289,13.105028,-2.837766,-29.812836,,,,,,,
1504196112.980680,0.023708,0.399982,-1.603641,0.042142,-0.013353,-0.018968,0.021834,-0.389401,-0.920809,-0.001983,0.000226,0.006701,12.954958,-2.763593,-29.738739,,,,,,,
1504196112.990689,0.023772,0.400374,-1.603739,0.033819,0.019737,-0.008366,0.021890,-0.389763,-0.920655,-0.005380,0.001732,0.007325,12.954958,-2.763593,-29.738739,,,,,,,
1504196113.000699,0.023997,0.400633,-1.603704,0.020050,0.039018,0.002251,0.022095,-0.390001,-0.920549,-0.006500,-0.000533,0.002291,12.879915,-2.838635,-29.888367,,,,,,,
1504196113.010709,0.024208,0.400807,-1.603589,0.010397,0.035894,0.007578,0.022287,-0.390161,-0.920477,-0.006769,-0.001654,0.002111,12.879915,-2.838635,-29.888367,,,,,,,
1504196113.020719,0.024419,0.400934,-1.603502,0.008175,0.024191,0.006527,0.022480,-0.390279,-0.920422,-0.002796,-0.000316,0.006375,12.880816,-3.064084,-29.661682,,,,,,,
1504196113.030729,0.024488,0.401080,-1.603476,0.006930,-0.000304,0.003366,0.022543,-0.390413,-0.920364,0.001597,0.000765,0.011367,12.880816,-3.064084,-29.661682,,,,,,,
1504196113.040738,0.024385,0.401216,-1.603515,0.005619,-0.032257,0.001284,0.022446,-0.390538,-0.920313,0.006881,0.001362,0.015665,13.030443,-2.913404,-29.662415,,,,,,,
1504196113.050748,0.024029,0.401285,-1.603600,-0.008468,-0.060907,-0.000826,0.022118,-0.390602,-0.920294,0.010399,-0.000252,0.017065,13.030443,-2.913404,-29.662415,,,,,,,
1504196113.060727,0.023477,0.401123,-1.603680,-0.035290,-0.079864,-0.000840,0.021612,-0.390452,-0.920370,0.010722,-0.002660,0.013967,12.880434,-2.914075,-29.662781,,,,,,,
1504196113.070737,0.022917,0.400631,-1.603719,-0.067203,-0.066814,0.001215,0.021100,-0.390000,-0.920573,0.008670,-0.002685,0.010615,12.880434,-2.914075,-29.662781,,,,,,,
1504196113.080747,0.022480,0.399865,-1.603682,-0.084097,-0.042169,0.005412,0.020705,-0.389294,-0.920881,0.003404,-0.000385,0.008237,12.955095,-2.913297,-29.887604,,,,,,,
1504196113.090757,0.022223,0.398918,-1.603566,-0.094553,-0.012252,0.010678,0.020477,-0.388421,-0.921254,-0.000976,0.002343,0.007116,12.955095,-2.913297,-29.887604,,,,,,,
1504196113.100766,0.022159,0.398131,-1.603339,-0.064522,0.014129,0.021358,0.020424,-0.387696,-0.921561,-0.002586,0.004838,0.004111,12.955248,-2.838742,-29.663177,,,,,,,
1504196113.110776,0.022156,0.397711,-1.602924,-0.011165,0.026457,0.038508,0.020425,-0.387309,-0.921724,-0.005288,0.013804,0.005556,12.955248,-2.838742,-29.663177,,,,,,,
1504196113.120786,0.022079,0.397766,-1.602357,0.041991,0.013215,0.054635,0.020354,-0.387360,-0.921704,-0.003203,0.018860,0.007123,12.955019,-2.838437,-29.813202,,,,,,,
1504196113.130796,0.021758,0.398210,-1.601696,0.074751,-0.019033,0.065422,0.020054,-0.387769,-0.921538,0.002255,0.018186,0.004195,12.955019,-2.838437,-29.813202,,,,,,,
1504196113.140805,0.021150,0.398837,-1.601104,0.081910,-0.060643,0.060170,0.019488,-0.388347,-0.921307,0.008573,0.012981,-0.001987,13.105410,-2.987775,-29.811707,,,,,,,
1504196113.150815,0.020367,0.399424,-1.600690,0.068972,-0.087157,0.044182,0.018763,-0.388888,-0.921094,0.013235,0.008364,-0.005282,13.105410,-2.987775,-29.811707,,,,,,,
1504196113.160825,0.019496,0.399874,-1.600433,0.042297,-0.096509,0.029207,0.017956,-0.389302,-0.920935,0.012332,0.002278,-0.003092,12.654345,-2.614636,-29.890594,,,,,,,
1504196113.170835,0.018618,0.400084,-1.600259,0.009302,-0.091964,0.020602,0.017146,-0.389496,-0.920869,0.008504,-0.001282,0.001999,12.654345,-2.614636,-29.890594,,,,,,,
1504196113.180845,0.017819,0.400014,-1.600125,-0.022551,-0.076775,0.014115,0.016411,-0.389431,-0.920909,0.005119,-0.005512,0.004695,13.105440,-2.913068,-29.662231,,,,,,,
1504196113.190854,0.017290,0.399825,-1.600004,-0.046766,-0.039275,0.009737,0.015926,-0.389258,-0.920991,0.000569,-0.007929,0.009202,13.105440,-2.913068,-29.662231,,,,,,,
1504196113.200864,0.017086,0.399418,-1.599896,-0.060304,-0.000798,0.005377,0.015740,-0.388883,-0.921153,-0.003899,-0.007388,0.012522,12.955248,-2.838742,-29.663177,,,,,,,
1504196113.210874,0.017193,0.398936,-1.599814,-0.065348,0.033345,0.002107,0.015842,-0.388438,-0.921339,-0.006885,-0.004399,0.010465,12.955248,-2.838742,-29.663177,,,,,,,
1504196113.220884,0.017511,0.398407,-1.599708,-0.049202,0.052388,0.004237,0.016138,-0.387951,-0.921539,-0.008830,0.000408,0.004714,13.105257,-2.838071,-29.662811,,,,,,,
1504196113.230893,0.017817,0.398012,-1.599557,-0.036463,0.046948,0.008539,0.016424,-0.387586,-0.921687,-0.008978,0.002699,0.005916,13.105257,-2.838071,-29.662811,,,,,,,
1504196113.240903,0.017947,0.397826,-1.599373,-0.007898,0.020066,0.013974,0.016545,-0.387415,-0.921757,-0.005879,0.003778,0.002873,12.880709,-3.063931,-29.736694,,,,,,,
1504196113.250913,0.017742,0.397735,-1.599210,0.003531,-0.019454,0.011929,0.016356,-0.387331,-0.921795,-0.002990,0.003863,-0.000766,12.880709,-3.063931,-29.736694,,,,,,,
1504196113.260923,0.017216,0.397869,-1.599134,0.021401,-0.056891,0.005621,0.015870,-0.387455,-0.921752,0.000075,0.004108,0.001113,12.805147,-2.839261,-29.738556,,,,,,,
1504196113.270932,0.016548,0.398015,-1.599161,0.018114,-0.072838,-0.002896,0.015254,-0.387590,-0.921706,0.002523,0.002946,0.001601,12.805147,-2.839261,-29.738556,,,,,,,
1504196113.280942,0.015989,0.398202,-1.599292,0.016162,-0.056827,-0.013601,0.014737,-0.387761,-0.921642,0.000629,0.000447,0.002483,12.956011,-3.138745,-29.660919,,,,,,,
1504196113.290952,0.015660,0.398312,-1.599483,0.005717,-0.032227,-0.019000,0.014433,-0.387863,-0.921604,-0.001357,-0.000793,0.005008,12.956011,-3.138745,-29.660919,,,,,,,
1504196113.300962,0.015529,0.398255,-1.599698,-0.019678,-0.008571,-0.023354,0.014313,-0.387810,-0.921628,-0.004456,-0.000755,0.007123,12.580065,-2.989682,-30.037964,,,,,,,
1504196113.310941,0.015597,0.398115,-1.599879,-0.022723,0.012762,-0.020195,0.014377,-0.387682,-0.921681,-0.005725,-0.003264,0.004643,12.580065,-2.989682,-30.037964,,,,,,,
1504196113.320951,0.015718,0.397921,-1.599953,-0.031250,0.020278,-0.009548,0.014490,-0.387503,-0.921755,-0.006876,-0.002939,0.006639,12.880587,-3.063779,-29.811707,,,,,,,
1504196113.330960,0.015762,0.397695,-1.599923,-0.028153,0.013846,0.001144,0.014531,-0.387295,-0.921842,-0.006810,-0.002079,0.005307,12.880587,-3.063779,-29.811707,,,,,,,
1504196113.340970,0.015731,0.397349,-1.599855,-0.034602,0.008569,0.002210,0.014505,-0.386975,-0.921976,-0.006143,-0.000110,0.000025,12.654650,-2.914044,-30.188385,,,,,,,
1504196113.350980,0.015766,0.396990,-1.599828,-0.035592,0.014975,-0.003139,0.014539,-0.386644,-0.922114,-0.005323,0.000307,-0.001714,12.654650,-2.914044,-30.188385,,,,,,,
1504196113.360990,0.015920,0.396624,-1.599859,-0.032302,0.023476,-0.007418,0.014683,-0.386306,-0.922254,-0.004674,0.001220,-0.001422,12.879686,-2.614072,-29.665039,,,,,,,
1504196113.371000,0.016100,0.396265,-1.599921,-0.030136,0.025591,-0.010619,0.014852,-0.385975,-0.922390,-0.006841,0.002354,-0.000935,12.879686,-2.614072,-29.665039,,,,,,,
1504196113.381009,0.016258,0.395971,-1.600026,-0.021657,0.015934,-0.014856,0.014999,-0.385705,-0.922500,-0.004822,0.000634,-0.002335,13.030626,-2.988400,-29.661865,,,,,,,
1504196113.391019,0.016315,0.395792,-1.600220,-0.014297,-0.002235,-0.022283,0.015053,-0.385539,-0.922569,-0.003090,0.000499,-0.002175,13.030626,-2.988400,-29.661865,,,,,,,
1504196113.401029,0.016238,0.395726,-1.600510,-0.004820,-0.022552,-0.029702,0.014983,-0.385478,-0.922595,-0.001021,-0.000935,0.000644,12.955400,-2.988446,-29.812073,,,,,,,
1504196113.411039,0.016013,0.395749,-1.600851,-0.002757,-0.034287,-0.033948,0.014775,-0.385499,-0.922590,-0.002156,-0.003310,0.002195,12.955400,-2.988446,-29.812073,,,,,,,
1504196113.421048,0.015773,0.395871,-1.601198,0.007977,-0.026916,-0.035009,0.014552,-0.385612,-0.922546,-0.004649,-0.002922,0.002594,12.804796,-2.614560,-29.590240,,,,,,,
1504196113.431058,0.015701,0.395912,-1.601543,0.001809,0.000840,-0.037202,0.014486,-0.385650,-0.922532,-0.008275,-0.001390,0.004181,12.804796,-2.614560,-29.590240,,,,,,,
1504196113.441068,0.015917,0.395861,-1.601862,-0.011770,0.037180,-0.037288,0.014686,-0.385603,-0.922548,-0.012199,0.000700,0.005540,13.105440,-2.913068,-29.662231,,,,,,,
1504196113.451078,0.016377,0.395609,-1.602181,-0.029739,0.057572,-0.038422,0.015112,-0.385371,-0.922638,-0.012518,0.001307,0.003159,13.105440,-2.913068,-29.662231,,,,,,,
1504196113.461087,0.016941,0.395228,-1.602480,-0.040390,0.061916,-0.035244,0.015634,-0.385019,-0.922776,-0.011224,-0.000586,-0.002318,12.880251,-2.839078,-29.663361,,,,,,,
1504196113.471097,0.017502,0.394899,-1.602784,-0.028728,0.053292,-0.034140,0.016154,-0.384715,-0.922894,-0.008723,-0.001012,0.000348,12.880251,-2.839078,-29.663361,,,,,,,
1504196113.481107,0.017954,0.394643,-1.603147,-0.025642,0.036220,-0.038374,0.016573,-0.384478,-0.922985,-0.006213,0.001132,0.003994,13.180513,-2.987576,-29.736511,,,,,,,
1504196113.491117,0.018233,0.394566,-1.603594,-0.002392,0.005131,-0.043615,0.016831,-0.384408,-0.923010,-0.002091,0.002709,0.005270,13.180513,-2.987576,-29.736511,,,,,,,
1504196113.501126,0.018196,0.394611,-1.604066,0.012248,-0.031221,-0.042459,0.016796,-0.384449,-0.922993,0.000538,0.002995,0.002034,13.105822,-3.063062,-29.661102,,,,,,,
1504196113.511136,0.017861,0.394821,-1.604512,0.031289,-0.051625,-0.042389,0.016486,-0.384643,-0.922918,-0.001593,0.003875,-0.000803,13.105822,-3.063062,-29.661102,,,,,,,
1504196113.521146,0.017470,0.395087,-1.605009,0.032409,-0.049496,-0.049862,0.016123,-0.384888,-0.922822,-0.003688,0.004700,0.002427,12.955400,-2.764188,-29.438751,,,,,,,
1504196113.531156,0.017269,0.395296,-1.605545,0.025129,-0.027057,-0.052049,0.015936,-0.385082,-0.922745,-0.003913,0.004741,0.001206,12.955400,-2.764188,-29.438751,,,,,,,
1504196113.541166,0.017306,0.395477,-1.605987,0.022136,0.004924,-0.042503,0.015969,-0.385248,-0.922675,-0.007378,0.002329,0.002646,13.105593,-3.062772,-29.811127,,,,,,,
1504196113.551175,0.017517,0.395642,-1.606224,0.003060,0.032764,-0.023371,0.016163,-0.385401,-0.922608,-0.009343,-0.003225,0.003586,13.105593,-3.062772,-29.811127,,,,,,,
1504196113.561155,0.017873,0.395667,-1.606325,-0.009666,0.048840,-0.012746,0.016491,-0.385424,-0.922592,-0.008526,-0.005445,0.003449,12.955370,-3.063138,-29.961487,,,,,,,
1504196113.571164,0.018332,0.395604,-1.606419,-0.026756,0.046847,-0.011705,0.016915,-0.385365,-0.922609,-0.004326,-0.007533,0.006182,12.955370,-3.063138,-29.961487,,,,,,,
1504196113.581174,0.018776,0.395523,-1.606621,-0.026858,0.027678,-0.021278,0.017325,-0.385291,-0.922632,0.001290,-0.009133,0.008311,12.805635,-3.213666,-30.035736,,,,,,,
1504196113.591184,0.019101,0.395398,-1.607066,-0.029056,0.003215,-0.046857,0.017626,-0.385175,-0.922675,0.003019,-0.008288,0.009162,12.805635,-3.213666,-30.035736,,,,,,,
1504196113.601194,0.019418,0.395238,-1.607836,-0.034351,-0.009499,-0.074597,0.017920,-0.385028,-0.922731,0.005761,-0.008390,0.008684,12.954760,-2.688596,-29.739319,,,,,,,
1504196113.611203,0.019738,0.395016,-1.608779,-0.037504,-0.010526,-0.085276,0.018217,-0.384823,-0.922811,0.004397,-0.008869,0.005162,12.954760,-2.688596,-29.739319,,,,,,,
1504196113.621213,0.020088,0.394860,-1.609676,-0.035252,0.006501,-0.081032,0.018541,-0.384679,-0.922864,-0.000780,-0.009089,0.007993,12.880175,-2.764234,-29.588928,,,,,,,
1504196113.631223,0.020447,0.394680,-1.610355,-0.036275,0.023537,-0.061850,0.018874,-0.384513,-0.922927,-0.005416,-0.009545,0.008895,12.880175,-2.764234,-29.588928,,,,,,,
1504196113.641233,0.020880,0.394566,-1.610815,-0.027638,0.045825,-0.045863,0.019274,-0.384407,-0.922962,-0.009600,-0.008766,0.006977,13.029161,-2.537946,-29.890259,,,,,,,
1504196113.651242,0.021433,0.394593,-1.611179,-0.006192,0.060556,-0.040502,0.019785,-0.384432,-0.922941,-0.011438,-0.006788,0.008146,13.029161,-2.537946,-29.890259,,,,,,,
1504196113.661252,0.021995,0.394655,-1.611604,-0.006246,0.048840,-0.047952,0.020303,-0.384490,-0.922906,-0.009637,-0.003846,0.013406,12.954607,-2.538892,-29.590454,,,,,,,
1504196113.671262,0.022448,0.394858,-1.612163,0.006321,0.015708,-0.053209,0.020719,-0.384677,-0.922819,-0.001462,-0.004727,0.012052,12.954607,-2.538892,-29.590454,,,,,,,
1504196113.681272,0.022650,0.395054,-1.612773,0.005986,-0.025847,-0.052070,0.020903,-0.384858,-0.922739,0.006715,-0.006164,0.008356,13.179842,-2.762433,-29.813202,,,,,,,
1504196113.691282,0.022495,0.395230,-1.613375,-0.002899,-0.067333,-0.047744,0.020760,-0.385021,-0.922674,0.011894,-0.008610,0.007513,13.179842,-2.762433,-29.813202,,,,,,,
1504196113.701291,0.022080,0.395306,-1.613982,-0.012676,-0.089627,-0.047724,0.020376,-0.385090,-0.922654,0.013972,-0.009868,0.005112,13.180101,-2.688031,-29.513763,,,,,,,
1504196113.711301,0.021615,0.395204,-1.614602,-0.030755,-0.085208,-0.052034,0.019947,-0.384996,-0.922702,0.012111,-0.007261,0.003315,13.105135,-2.837918,-29.737823,,,,,,,
1504196113.721311,0.021348,0.394957,-1.615274,-0.036847,-0.052113,-0.060643,0.019703,-0.384769,-0.922803,0.006512,-0.006528,0.005551,13.105135,-2.837918,-29.737823,,,,,,,
1504196113.731321,0.021461,0.394546,-1.615961,-0.056738,-0.006126,-0.062894,0.019811,-0.384389,-0.922958,0.001551,-0.005686,0.005905,13.179689,-2.612729,-29.664307,,,,,,,
1504196113.741330,0.021869,0.394004,-1.616549,-0.061801,0.032269,-0.055498,0.020192,-0.383889,-0.923158,-0.004307,-0.004279,0.007280,13.179689,-2.612729,-29.664307,,,,,,,
1504196113.751340,0.022517,0.393411,-1.617011,-0.070152,0.061097,-0.045956,0.020795,-0.383341,-0.923373,-0.006391,-0.004812,0.007433,13.029909,-2.613706,-29.514679,,,,,,,
1504196113.761350,0.023311,0.392862,-1.617382,-0.056227,0.073758,-0.036347,0.021533,-0.382834,-0.923566,-0.004977,-0.003000,0.003278,13.029909,-2.613706,-29.514679,,,,,,,
1504196113.771360,0.024098,0.392483,-1.617684,-0.029644,0.067138,-0.028817,0.022263,-0.382483,-0.923694,-0.002168,0.001548,0.002292,12.955141,-2.838590,-29.738190,,,,,,,
1504196113.781369,0.024732,0.392426,-1.618002,-0.002186,0.033876,-0.025509,0.022850,-0.382431,-0.923701,0.004204,0.001816,0.004985,12.955141,-2.838590,-29.738190,,,,,,,
1504196113.791379,0.024960,0.392502,-1.618323,0.009153,-0.015234,-0.024337,0.023060,-0.382502,-0.923667,0.007733,-0.000616,0.005973,13.105059,-2.763059,-29.663361,,,,,,,
1504196113.801389,0.024719,0.392693,-1.618698,0.012998,-0.069606,-0.026371,0.022836,-0.382678,-0.923600,0.012275,-0.002210,0.002457,13.105059,-2.763059,-29.663361,,,,,,,
1504196113.811368,0.024102,0.392963,-1.619100,0.019108,-0.106948,-0.027364,0.022263,-0.382927,-0.923510,0.014648,-0.005485,0.003115,13.479494,-2.536374,-29.664124,,,,,,,
1504196113.821378,0.023310,0.393293,-1.619459,0.013727,-0.111166,-0.024165,0.021528,-0.383232,-0.923401,0.011766,-0.006828,0.009873,13.479494,-2.536374,-29.664124,,,,,,,
1504196113.831388,0.022585,0.393546,-1.619739,0.002147,-0.088696,-0.018889,0.020857,-0.383466,-0.923320,0.008013,-0.007342,0.011866,12.879656,-2.688779,-29.814514,,,,,,,
1504196113.841397,0.022088,0.393661,-1.619877,-0.011440,-0.047036,-0.008312,0.020397,-0.383572,-0.923286,0.003071,-0.008442,0.009620,12.879656,-2.688779,-29.814514,,,,,,,
1504196113.851388,0.021989,0.393628,-1.619864,-0.018488,0.010555,0.000114,0.020306,-0.383541,-0.923301,-0.003689,-0.006168,0.006186,12.878862,-2.463483,-29.966187,,,,,,,
1504196113.861398,0.022299,0.393439,-1.619753,-0.026642,0.060698,0.004282,0.020594,-0.383367,-0.923366,-0.009455,-0.002192,0.006817,12.878862,-2.463483,-29.966187,,,,,,,
1504196113.871408,0.022897,0.393225,-1.619605,-0.026484,0.083068,0.008514,0.021148,-0.383169,-0.923436,-0.008971,-0.001307,0.003621,12.879091,-2.463773,-29.816193,,,,,,,
1504196113.881418,0.023542,0.393013,-1.619432,-0.023319,0.079841,0.010661,0.021745,-0.382973,-0.923503,-0.007707,-0.001640,0.003139,12.879091,-2.463773,-29.816193,,,,,,,
1504196113.891427,0.024086,0.392880,-1.619330,-0.025626,0.055355,0.006430,0.022249,-0.382851,-0.923542,-0.002595,-0.002861,0.006977,12.879351,-2.613629,-29.890045,,,,,,,
1504196113.901437,0.024421,0.392847,-1.619360,-0.003497,0.014691,-0.003067,0.022558,-0.382820,-0.923548,0.003733,-0.001015,0.008417,12.879351,-2.613629,-29.890045,,,,,,,
1504196113.911447,0.024485,0.392918,-1.619529,-0.000513,-0.019420,-0.013676,0.022617,-0.382886,-0.923519,0.006970,-0.002994,0.010555,12.879457,-2.613782,-29.815063,,,,,,,
1504196113.921457,0.024306,0.393159,-1.619771,0.011042,-0.045083,-0.017882,0.022450,-0.383109,-0.923431,0.007809,-0.004678,0.013183,12.879457,-2.613782,-29.815063,,,,,,,
1504196113.931466,0.023945,0.393466,-1.619968,0.017351,-0.053664,-0.012520,0.022113,-0.383392,-0.923321,0.005475,-0.003510,0.015316,12.879229,-2.613477,-29.965057,,,,,,,
1504196113.941476,0.023611,0.393799,-1.620110,0.014243,-0.039789,-0.008281,0.021802,-0.383700,-0.923201,0.004123,-0.004484,0.014296,12.879229,-2.613477,-29.965057,,,,,,,
1504196113.951486,0.023426,0.394014,-1.620124,0.004801,-0.014146,0.001264,0.021629,-0.383898,-0.923122,0.000343,-0.005324,0.014004,12.729357,-2.614301,-29.890411,,,,,,,
1504196113.961496,0.023431,0.394042,-1.620016,-0.027014,0.014878,0.009698,0.021634,-0.383924,-0.923111,-0.002698,-0.006228,0.013336,12.729357,-2.614301,-29.890411,,,,,,,
1504196113.971505,0.023617,0.393708,-1.619833,-0.056748,0.035363,0.014947,0.021808,-0.383616,-0.923235,-0.003864,-0.007452,0.011263,13.104494,-2.538068,-29.665070,,,,,,,
1504196113.981515,0.023918,0.393102,-1.619620,-0.084390,0.047311,0.014879,0.022092,-0.383056,-0.923461,-0.004071,-0.006409,0.008346,13.104494,-2.538068,-29.665070,,,,,,,
1504196113.991525,0.024291,0.392353,-1.619398,-0.086493,0.051589,0.015936,0.022443,-0.382364,-0.923739,-0.004087,-0.005286,0.007007,12.879915,-2.614377,-29.515045,,,,,,,
1504196114.001535,0.024651,0.391587,-1.619180,-0.081183,0.048347,0.015951,0.022782,-0.381656,-0.924024,-0.003633,-0.002179,0.006269,12.879915,-2.614377,-29.515045,,,,,,,
1504196114.011545,0.024934,0.390900,-1.618992,-0.057801,0.036433,0.014946,0.023051,-0.381020,-0.924279,-0.003199,0.002938,0.002740,12.729128,-2.389752,-29.667114,,,,,,,
1504196114.021554,0.025128,0.390365,-1.618811,-0.036537,0.026669,0.013933,0.023235,-0.380526,-0.924478,-0.001811,0.005846,0.001230,12.729128,-2.389752,-29.667114,,,,,,,
1504196114.031564,0.025251,0.390160,-1.618703,-0.008837,0.017922,0.007592,0.023351,-0.380337,-0.924553,-0.001729,0.006985,0.002144,12.878222,-2.163632,-29.893433,,,,,,,
1504196114.041574,0.025335,0.390031,-1.618633,0.001812,0.013574,0.004416,0.023430,-0.380217,-0.924601,-0.002372,0.006453,0.000055,12.878222,-2.163632,-29.893433,,,,,,,
1504196114.051584,0.025304,0.390084,-1.618558,0.007041,0.001807,0.006581,0.023401,-0.380266,-0.924581,-0.003351,0.002641,0.001714,12.729357,-2.390042,-29.517120,,,,,,,
1504196114.061563,0.025073,0.390157,-1.618463,0.002573,-0.022667,0.007684,0.023186,-0.380334,-0.924559,-0.001686,-0.001273,0.002943,12.729357,-2.390042,-29.517120,,,,,,,
1504196114.071573,0.024686,0.390167,-1.618401,-0.010373,-0.042803,0.004495,0.022828,-0.380343,-0.924564,0.000914,-0.004438,0.003314,12.654543,-2.689633,-29.890045,,,,,,,
1504196114.081582,0.024194,0.390139,-1.618412,-0.021101,-0.054429,-0.001908,0.022374,-0.380317,-0.924586,0.001796,-0.007043,0.007990,12.654543,-2.689633,-29.890045,,,,,,,
1504196114.091592,0.023641,0.390063,-1.618432,-0.030728,-0.058611,-0.002985,0.021864,-0.380247,-0.924626,0.000964,-0.007891,0.011907,13.104570,-2.612912,-29.739502,,,,,,,
1504196114.101602,0.023106,0.389882,-1.618471,-0.042345,-0.046790,-0.007295,0.021370,-0.380079,-0.924707,-0.002632,-0.008470,0.013940,13.104570,-2.612912,-29.739502,,,,,,,
1504196114.111612,0.022800,0.389578,-1.618503,-0.046367,-0.015856,-0.006289,0.021090,-0.379798,-0.924829,-0.004427,-0.008080,0.007410,12.878450,-2.163922,-29.743439,,,,,,,
1504196114.121621,0.022770,0.389374,-1.618478,-0.030072,0.022365,-0.003124,0.021064,-0.379609,-0.924907,-0.009971,-0.004195,0.007579,12.878450,-2.163922,-29.743439,,,,,,,
1504196114.131631,0.022854,0.389286,-1.618357,-0.010869,0.028587,0.007574,0.021142,-0.379528,-0.924939,-0.010248,0.000118,0.012219,12.729570,-2.614606,-29.740417,,,,,,,
1504196114.141641,0.022806,0.389197,-1.618148,-0.019599,0.009467,0.016132,0.021099,-0.379446,-0.924973,-0.007122,-0.000910,0.005570,12.729570,-2.614606,-29.740417,,,,,,,
1504196114.151651,0.022579,0.389051,-1.617978,-0.013395,-0.017221,0.012988,0.020890,-0.379310,-0.925034,-0.002686,-0.000908,-0.001266,12.653780,-2.389646,-29.892303,,,,,,,
1504196114.161660,0.022267,0.388943,-1.617877,-0.004937,-0.030072,0.007689,0.020602,-0.379210,-0.925081,0.001309,0.000167,-0.004820,12.653780,-2.389646,-29.892303,,,,,,,
1504196114.171670,0.021891,0.388915,-1.617794,0.002519,-0.032264,0.006638,0.020255,-0.379185,-0.925099,-0.001471,0.001255,-0.002971,12.953402,-2.238294,-29.892670,,,,,,,
1504196114.181680,0.021502,0.388870,-1.617732,-0.007058,-0.031117,0.003418,0.019895,-0.379143,-0.925124,-0.003263,-0.000602,-0.002488,12.953402,-2.238294,-29.892670,,,,,,,
1504196114.191690,0.021185,0.388749,-1.617670,-0.013361,-0.019343,0.002319,0.019603,-0.379031,-0.925176,-0.002986,-0.001767,-0.008967,12.954119,-2.612988,-30.039856,,,,,,,
1504196114.201700,0.021056,0.388524,-1.617616,-0.017459,0.002001,0.002275,0.019485,-0.378823,-0.925264,-0.004257,-0.003395,-0.011900,12.954119,-2.612988,-30.039856,,,,,,,
1504196114.211709,0.021074,0.388431,-1.617543,-0.006649,0.018961,0.001198,0.019503,-0.378737,-0.925299,-0.007433,-0.002184,-0.008691,12.728792,-2.389295,-29.892120,,,,,,,
1504196114.221719,0.021172,0.388388,-1.617443,0.008311,0.025224,0.006551,0.019594,-0.378697,-0.925313,-0.006746,0.000523,-0.007945,12.728792,-2.389295,-29.892120,,,,,,,
1504196114.231729,0.021208,0.388565,-1.617286,0.025293,0.017618,0.011932,0.019625,-0.378861,-0.925245,-0.006442,0.000947,-0.007021,13.028902,-2.388104,-29.816376,,,,,,,
1504196114.241739,0.021140,0.388918,-1.617135,0.044373,0.001477,0.010926,0.019560,-0.379187,-0.925113,-0.004286,0.001258,-0.003125,13.028902,-2.388104,-29.816376,,,,,,,
1504196114.251748,0.021136,0.389386,-1.617099,0.046555,0.001469,0.001323,0.019552,-0.379620,-0.924936,0.000345,0.001416,-0.000235,13.103853,-2.462461,-29.965637,,,,,,,
1504196114.261758,0.021188,0.389956,-1.617157,0.056191,0.002461,-0.003999,0.019596,-0.380148,-0.924718,0.001690,0.002157,0.001866,13.103853,-2.462461,-29.965637,,,,,,,
1504196114.271768,0.021306,0.390426,-1.617195,0.043455,0.012154,-0.001903,0.019701,-0.380583,-0.924537,0.000044,0.000837,0.004524,13.104799,-2.837461,-29.962830,,,,,,,
1504196114.281778,0.021471,0.390826,-1.617157,0.025404,0.026149,0.003378,0.019851,-0.380952,-0.924382,-0.003066,-0.003401,0.006214,13.104799,-2.837461,-29.962830,,,,,,,
1504196114.291787,0.021605,0.391049,-1.617077,0.006225,0.028438,0.002274,0.019973,-0.381158,-0.924294,-0.006835,-0.004920,0.007409,12.729647,-2.465192,-29.441559,,,,,,,
1504196114.301797,0.021812,0.391162,-1.617076,-0.008640,0.031764,-0.006296,0.020163,-0.381263,-0.924247,-0.006705,-0.004449,0.010871,12.729647,-2.465192,-29.441559,,,,,,,
1504196114.311776,0.022069,0.391241,-1.617168,-0.004409,0.024274,-0.010544,0.020400,-0.381336,-0.924211,-0.003432,-0.002438,0.013933,12.804796,-2.614560,-29.590240,,,,,,,
1504196114.321786,0.022221,0.391340,-1.617344,-0.008815,0.001941,-0.017985,0.020539,-0.381428,-0.924170,-0.000398,-0.002911,0.019462,12.804796,-2.614560,-29.590240,,,,,,,
1504196114.331796,0.022156,0.391383,-1.617559,-0.011167,-0.025745,-0.017941,0.020479,-0.381467,-0.924155,0.003020,-0.003756,0.015083,12.730257,-2.839749,-29.663727,,,,,,,
1504196114.341806,0.021918,0.391371,-1.617745,-0.005950,-0.038577,-0.014707,0.020259,-0.381456,-0.924165,0.003178,-0.000518,0.007371,12.730257,-2.839749,-29.663727,,,,,,,
1504196114.351816,0.021560,0.391393,-1.617862,0.002567,-0.037588,-0.009357,0.019928,-0.381477,-0.924164,-0.000366,0.002128,0.007522,12.880022,-2.838773,-29.813385,,,,,,,
1504196114.361825,0.021317,0.391388,-1.617859,0.009087,-0.015276,0.002357,0.019704,-0.381472,-0.924170,-0.001866,0.005266,0.002814,12.880022,-2.838773,-29.813385,,,,,,,
1504196114.371835,0.021154,0.391528,-1.617641,0.018807,0.010198,0.019408,0.019552,-0.381601,-0.924120,-0.007528,0.005533,0.001910,13.104769,-2.687909,-29.738953,,,,,,,
1504196114.381845,0.021067,0.391686,-1.617251,0.020956,0.020820,0.033271,0.019470,-0.381747,-0.924062,-0.009109,0.005115,0.007131,13.104769,-2.687909,-29.738953,,,,,,,
1504196114.391855,0.020987,0.391810,-1.616849,0.012391,0.016627,0.032197,0.019395,-0.381862,-0.924016,-0.007310,0.005626,0.004948,13.104540,-2.687619,-29.888947,,,,,,,
1504196114.401864,0.020890,0.391834,-1.616531,0.003833,0.009245,0.024724,0.019305,-0.381884,-0.924009,-0.004993,0.003649,0.002378,13.104540,-2.687619,-29.888947,,,,,,,
1504196114.411874,0.020832,0.391897,-1.616358,0.001743,0.006079,0.010850,0.019251,-0.381942,-0.923986,-0.003138,0.001403,0.006536,12.879457,-2.613782,-29.815063,,,,,,,
1504196114.421884,0.020767,0.391960,-1.616277,0.002823,0.002880,0.003386,0.019191,-0.382000,-0.923963,-0.004130,0.000882,0.007993,12.879457,-2.613782,-29.815063,,,,,,,
1504196114.431894,0.020680,0.391923,-1.616250,-0.006761,0.001897,-0.001965,0.019111,-0.381966,-0.923979,-0.005836,0.000634,0.006193,13.104464,-2.612760,-29.814514,,,,,,,
1504196114.441903,0.020613,0.392048,-1.616222,0.013517,0.003858,0.000202,0.019047,-0.382082,-0.923932,-0.005818,0.000444,0.004178,13.104464,-2.612760,-29.814514,,,,,,,
1504196114.451913,0.020578,0.392264,-1.616167,0.025240,0.004821,0.004491,0.019013,-0.382282,-0.923850,-0.004853,0.001728,0.008720,12.954348,-2.613294,-29.889862,,,,,,,
1504196114.461923,0.020486,0.392605,-1.616079,0.030482,-0.004817,0.007720,0.018926,-0.382596,-0.923722,-0.003454,0.002713,0.011155,12.954348,-2.613294,-29.889862,,,,,,,
1504196114.471933,0.020343,0.392873,-1.616012,0.019748,-0.014317,0.005583,0.018792,-0.382844,-0.923622,-0.000832,0.001405,0.008720,13.030184,-2.763547,-29.588562,,,,,,,
1504196114.481942,0.020245,0.392994,-1.616009,0.010176,-0.013167,0.001295,0.018700,-0.382956,-0.923577,0.001884,0.001593,0.002603,13.030184,-2.763547,-29.588562,,,,,,,
1504196114.491952,0.020185,0.393030,-1.615983,0.011308,-0.003588,0.003415,0.018645,-0.382989,-0.923565,0.000444,0.003869,0.002239,13.104464,-2.612760,-29.814514,,,,,,,
1504196114.501962,0.020162,0.393021,-1.615889,-0.001431,0.007168,0.007644,0.018623,-0.382981,-0.923568,-0.002479,0.002793,0.004120,13.104464,-2.612760,-29.814514,,,,,,,
1504196114.511972,0.020201,0.393084,-1.615704,0.011439,0.020905,0.016182,0.018659,-0.383039,-0.923544,-0.004117,0.002775,0.004644,12.880068,-2.764081,-29.663910,,,,,,,
1504196114.521982,0.020274,0.393239,-1.615447,0.015706,0.024060,0.021521,0.018726,-0.383182,-0.923483,-0.004855,0.002536,0.005621,12.880068,-2.764081,-29.663910,,,,,,,
1504196114.531991,0.020323,0.393498,-1.615243,0.022026,0.011224,0.017285,0.018768,-0.383421,-0.923383,-0.001693,0.002242,0.010358,12.805254,-2.839414,-29.663544,,,,,,,
1504196114.542001,0.020320,0.393745,-1.615137,0.021940,-0.003686,0.010907,0.018764,-0.383649,-0.923288,0.002583,0.000745,0.007746,12.805254,-2.839414,-29.663544,,,,,,,
1504196114.552011,0.020282,0.394024,-1.615102,0.020894,-0.005800,0.003436,0.018726,-0.383907,-0.923182,0.002743,-0.000629,0.004755,13.255144,-2.837247,-29.737457,,,,,,,
1504196114.561990,0.020328,0.394276,-1.615130,0.015687,0.005971,-0.002998,0.018767,-0.384140,-0.923084,0.000291,-0.001419,0.007648,13.255144,-2.837247,-29.737457,,,,,,,
1504196114.572000,0.020404,0.394483,-1.615105,0.006134,0.014570,0.001240,0.018836,-0.384331,-0.923003,-0.003028,-0.002418,0.011199,12.955706,-3.063596,-29.736481,,,,,,,
1504196114.582010,0.020449,0.394532,-1.614994,-0.009865,0.018956,0.007610,0.018877,-0.384376,-0.922984,-0.006380,-0.003991,0.009333,12.955706,-3.063596,-29.736481,,,,,,,
1504196114.592019,0.020460,0.394506,-1.614787,-0.021632,0.020108,0.016127,0.018887,-0.384353,-0.922993,-0.006604,-0.005860,0.010502,13.330065,-2.762052,-29.662811,,,,,,,
1504196114.602029,0.020414,0.394503,-1.614518,-0.014216,0.015778,0.020418,0.018844,-0.384350,-0.922995,-0.007324,-0.004414,0.012244,13.330065,-2.762052,-29.662811,,,,,,,
1504196114.612039,0.020329,0.394489,-1.614259,-0.008907,0.010407,0.017236,0.018767,-0.384336,-0.923002,-0.007597,-0.001162,0.014250,13.029467,-2.613111,-29.814697,,,,,,,
1504196114.622049,0.020189,0.394720,-1.614068,0.019831,-0.000483,0.014103,0.018635,-0.384550,-0.922916,-0.005238,0.002790,0.016452,13.029467,-2.613111,-29.814697,,,,,,,
1504196114.632058,0.019981,0.395043,-1.613937,0.037923,-0.010217,0.007748,0.018441,-0.384848,-0.922796,-0.005395,0.005865,0.015859,13.104952,-2.762921,-29.738373,,,,,,,
1504196114.642068,0.019751,0.395463,-1.613879,0.044330,-0.013462,0.001361,0.018226,-0.385235,-0.922638,-0.005133,0.007916,0.015427,13.104952,-2.762921,-29.738373,,,,,,,
1504196114.652078,0.019555,0.395841,-1.613872,0.036896,-0.013399,-0.002909,0.018041,-0.385584,-0.922496,-0.004247,0.005625,0.011150,12.880434,-2.914075,-29.662781,,,,,,,
1504196114.662088,0.019389,0.396008,-1.613867,0.007097,-0.004630,-0.004043,0.017888,-0.385739,-0.922435,-0.005803,0.003933,0.008601,12.880434,-2.914075,-29.662781,,,,,,,
1504196114.672097,0.019351,0.396036,-1.613881,-0.000277,0.007152,-0.004076,0.017852,-0.385764,-0.922425,-0.005126,0.000800,0.006623,13.029619,-2.762799,-29.963562,,,,,,,
1504196114.682107,0.019455,0.395885,-1.613890,-0.024684,0.022272,-0.006279,0.017949,-0.385625,-0.922481,-0.006276,-0.000347,0.007518,13.029619,-2.762799,-29.963562,,,,,,,
1504196114.692117,0.019665,0.395753,-1.613923,-0.023564,0.028655,-0.006287,0.018144,-0.385503,-0.922528,-0.005357,-0.000788,0.013409,13.104616,-2.762464,-29.963379,,,,,,,
1504196114.702127,0.019865,0.395612,-1.613960,-0.023613,0.022260,-0.006276,0.018330,-0.385373,-0.922579,-0.004032,-0.000873,0.013323,13.104616,-2.762464,-29.963379,,,,,,,
1504196114.712137,0.020040,0.395539,-1.613986,-0.012966,0.020040,-0.005186,0.018491,-0.385305,-0.922604,-0.003324,0.000311,0.012722,13.179873,-2.911984,-30.037048,,,,,,,
1504196114.722146,0.020162,0.395540,-1.614028,-0.006626,0.011463,-0.006227,0.018604,-0.385306,-0.922601,-0.002872,0.000403,0.012872,13.179873,-2.911984,-30.037048,,,,,,,
1504196114.732156,0.020195,0.395553,-1.614075,-0.009885,0.004030,-0.006219,0.018634,-0.385319,-0.922595,-0.002917,-0.000652,0.012378,13.029650,-2.688107,-29.814148,,,,,,,
1504196114.742166,0.020162,0.395541,-1.614083,0.000760,0.002872,-0.002996,0.018604,-0.385308,-0.922601,-0.004261,0.000359,0.007607,13.029650,-2.688107,-29.814148,,,,,,,
1504196114.752176,0.020033,0.395632,-1.614040,0.001778,-0.001404,0.000217,0.018484,-0.385391,-0.922568,-0.006735,0.000153,0.009574,13.180437,-2.912732,-29.662048,,,,,,,
1504196114.762185,0.019856,0.395706,-1.614000,0.001761,-0.005665,-0.002977,0.018320,-0.385460,-0.922543,-0.007822,0.000343,0.010052,13.180437,-2.912732,-29.662048,,,,,,,
1504196114.772195,0.019703,0.395705,-1.614004,-0.004584,-0.001348,-0.007264,0.018180,-0.385458,-0.922546,-0.008017,0.000830,0.006378,13.029833,-2.763104,-29.813568,,,,,,,
1504196114.782205,0.019603,0.395749,-1.614023,-0.003479,0.003968,-0.006203,0.018087,-0.385500,-0.922531,-0.007757,-0.001006,0.006500,13.029833,-2.763104,-29.813568,,,,,,,
1504196114.792215,0.019596,0.395706,-1.614027,-0.006594,0.014647,-0.006226,0.018081,-0.385459,-0.922548,-0.008712,-0.001259,0.006166,13.254457,-2.612088,-29.814148,,,,,,,
1504196114.802224,0.019715,0.395717,-1.614036,-0.007543,0.028507,-0.007319,0.018190,-0.385470,-0.922541,-0.009996,-0.002287,0.006953,13.254457,-2.612088,-29.814148,,,,,,,
1504196114.812234,0.019927,0.395781,-1.614070,-0.004273,0.034874,-0.010525,0.018386,-0.385529,-0.922512,-0.010527,-0.003021,0.009137,13.179644,-2.687436,-29.813782,,,,,,,
1504196114.822213,0.020136,0.395901,-1.614150,-0.005381,0.027425,-0.013715,0.018577,-0.385640,-0.922462,-0.009148,-0.004802,0.011681,13.179644,-2.687436,-29.813782,,,,,,,
1504196114.832223,0.020197,0.395992,-1.614283,-0.007678,0.004003,-0.017947,0.018633,-0.385723,-0.922426,-0.006960,-0.005771,0.012606,13.329454,-2.611753,-29.813965,,,,,,,
1504196114.842233,0.020025,0.395996,-1.614469,-0.026019,-0.024614,-0.022197,0.018474,-0.385727,-0.922428,-0.004802,-0.007858,0.015354,13.329454,-2.611753,-29.813965,,,,,,,
1504196114.852238,0.019676,0.395986,-1.614737,-0.022953,-0.045945,-0.028559,0.018152,-0.385718,-0.922438,-0.001993,-0.009301,0.014296,12.954317,-2.463742,-29.665985,,,,,,,
1504196114.862248,0.019269,0.395839,-1.615043,-0.034722,-0.051175,-0.029637,0.017777,-0.385583,-0.922502,-0.001252,-0.007408,0.012117,12.954317,-2.463742,-29.665985,,,,,,,
1504196114.872257,0.018840,0.395774,-1.615331,-0.021865,-0.044889,-0.029626,0.017382,-0.385523,-0.922535,-0.004168,-0.004553,0.015674,12.954165,-2.538297,-29.890442,,,,,,,
1504196114.882267,0.018423,0.395723,-1.615632,-0.017545,-0.040660,-0.032827,0.016998,-0.385475,-0.922562,-0.006424,-0.002998,0.014206,12.954165,-2.538297,-29.890442,,,,,,,
1504196114.892277,0.018014,0.395689,-1.615934,-0.003672,-0.039712,-0.031737,0.016621,-0.385444,-0.922581,-0.006443,0.000496,0.008153,12.879580,-2.838178,-30.113373,,,,,,,
1504196114.902287,0.017711,0.395844,-1.616198,0.018746,-0.033512,-0.024237,0.016341,-0.385587,-0.922527,-0.003447,0.000776,0.008602,12.879580,-2.838178,-30.113373,,,,,,,
1504196114.912297,0.017408,0.396027,-1.616378,0.009139,-0.030243,-0.017854,0.016060,-0.385756,-0.922461,-0.004067,0.002165,0.009574,12.955065,-2.987988,-30.037048,,,,,,,
1504196114.922307,0.017174,0.396065,-1.616521,0.012430,-0.017487,-0.015735,0.015843,-0.385791,-0.922450,-0.004903,0.004901,0.002162,12.955065,-2.987988,-30.037048,,,,,,,
1504196114.932317,0.017126,0.396025,-1.616636,-0.000223,0.002860,-0.013657,0.015800,-0.385754,-0.922466,-0.004645,0.004223,-0.000141,13.329988,-2.911450,-29.961700,,,,,,,
1504196114.942327,0.017216,0.395958,-1.616745,-0.006575,0.010369,-0.011546,0.015883,-0.385692,-0.922491,-0.004012,0.003383,0.005819,13.329988,-2.911450,-29.961700,,,,,,,
1504196114.952336,0.017291,0.395824,-1.616878,-0.019474,-0.002311,-0.012614,0.015954,-0.385569,-0.922541,-0.000176,0.000956,0.007243,13.330065,-2.986310,-30.036133,,,,,,,
1504196114.962346,0.017286,0.395665,-1.617055,-0.022830,-0.022527,-0.013652,0.015950,-0.385421,-0.922603,0.006206,-0.001938,0.006419,13.330065,-2.986310,-30.036133,,,,,,,
1504196114.972356,0.017153,0.395543,-1.617287,-0.021842,-0.035316,-0.017899,0.015828,-0.385310,-0.922652,0.006602,-0.003759,0.008147,12.804461,-2.614118,-29.815247,,,,,,,
1504196114.982366,0.016928,0.395511,-1.617539,-0.017595,-0.039610,-0.020019,0.015621,-0.385279,-0.922668,0.005360,-0.003957,0.008941,12.804461,-2.614118,-29.815247,,,,,,,
1504196114.992374,0.016691,0.395481,-1.617766,-0.010043,-0.030080,-0.021091,0.015402,-0.385252,-0.922683,0.000773,-0.004015,0.008300,12.880510,-2.988935,-29.737244,,,,,,,
1504196115.002384,0.016581,0.395566,-1.617978,-0.005589,-0.007739,-0.022190,0.015300,-0.385331,-0.922652,-0.004008,-0.004470,0.009596,12.880510,-2.988935,-29.737244,,,,,,,
1504196115.012394,0.016648,0.395689,-1.618158,-0.003284,0.014616,-0.020090,0.015361,-0.385444,-0.922603,-0.006282,-0.005242,0.011470,13.180025,-2.837430,-29.812653,,,,,,,
1504196115.022404,0.016813,0.395700,-1.618286,-0.014940,0.026428,-0.016927,0.015513,-0.385455,-0.922596,-0.007685,-0.004987,0.007283,13.180025,-2.837430,-29.812653,,,,,,,
1504196115.032414,0.017034,0.395754,-1.618409,-0.010658,0.028521,-0.015855,0.015717,-0.385504,-0.922572,-0.007004,-0.006082,0.006984,12.880251,-2.839078,-29.663361,,,,,,,
1504196115.042423,0.017275,0.395761,-1.618573,-0.011780,0.020007,-0.017977,0.015939,-0.385511,-0.922566,-0.003396,-0.005252,0.007618,12.880251,-2.839078,-29.663361,,,,,,,
1504196115.052433,0.017487,0.395810,-1.618788,-0.003332,0.008217,-0.019009,0.016134,-0.385556,-0.922544,0.001093,-0.003925,0.006757,12.879946,-2.763928,-29.738922,,,,,,,
1504196115.062443,0.017584,0.395950,-1.618980,0.003984,-0.007832,-0.013632,0.016223,-0.385685,-0.922488,0.003522,-0.003643,0.009997,12.879946,-2.763928,-29.738922,,,,,,,
1504196115.072453,0.017429,0.396105,-1.619123,0.000565,-0.033380,-0.010391,0.016078,-0.385828,-0.922431,0.004018,-0.002631,0.010749,13.029955,-2.763257,-29.738556,,,,,,,
1504196115.082433,0.017059,0.396224,-1.619274,0.007834,-0.057948,-0.009269,0.015736,-0.385937,-0.922391,0.006328,-0.002597,0.006513,13.029955,-2.763257,-29.738556,,,,,,,
1504196115.092443,0.016620,0.396408,-1.619419,0.007827,-0.059012,-0.009268,0.015330,-0.386107,-0.922326,0.006932,-0.002687,0.004220,13.030260,-3.062650,-30.036285,,,,,,,
1504196115.102452,0.016219,0.396691,-1.619579,0.028222,-0.046388,-0.013525,0.014959,-0.386369,-0.922223,0.002848,0.000291,0.008878,13.030260,-3.062650,-30.036285,,,,,,,
1504196115.112462,0.016010,0.396964,-1.619742,0.025287,-0.016522,-0.018920,0.014765,-0.386620,-0.922121,-0.002451,0.002114,0.008150,12.729845,-2.764447,-29.814301,,,,,,,
1504196115.122472,0.016143,0.397132,-1.619907,0.011764,0.026213,-0.020085,0.014886,-0.386776,-0.922054,-0.006432,0.001934,0.007793,12.729845,-2.764447,-29.814301,,,,,,,
1504196115.132482,0.016565,0.397140,-1.620015,-0.007207,0.059394,-0.013771,0.015275,-0.386783,-0.922044,-0.008515,0.001178,0.007249,12.880358,-2.839231,-29.588379,,,,,,,
1504196115.142491,0.017171,0.397050,-1.620002,-0.016705,0.079704,-0.002080,0.015834,-0.386699,-0.922070,-0.009914,0.000759,0.005551,12.880358,-2.839231,-29.588379,,,,,,,
1504196115.152501,0.017825,0.396854,-1.619930,-0.025299,0.075505,0.003250,0.016439,-0.386518,-0.922135,-0.006506,-0.000734,0.010133,12.879732,-2.763623,-29.888916,,,,,,,
1504196115.162510,0.018356,0.396748,-1.619878,-0.021257,0.047765,0.004373,0.016929,-0.386421,-0.922167,-0.000526,-0.001641,0.010577,12.879732,-2.763623,-29.888916,,,,,,,
1504196115.172520,0.018682,0.396687,-1.619894,-0.012951,0.016799,0.001239,0.017231,-0.386365,-0.922185,0.004239,-0.001743,0.011083,13.030367,-2.838559,-29.588013,,,,,,,
1504196115.182529,0.018697,0.396727,-1.619991,-0.003612,-0.021629,-0.007217,0.017244,-0.386401,-0.922170,0.005629,0.000964,0.014653,13.030367,-2.838559,-29.588013,,,,,,,
1504196115.192539,0.018515,0.396845,-1.620152,0.011204,-0.038795,-0.010364,0.017075,-0.386510,-0.922127,0.007308,0.002020,0.010780,12.804689,-2.614408,-29.665222,,,,,,,
1504196115.202549,0.018194,0.397100,-1.620300,0.016512,-0.043099,-0.011416,0.016777,-0.386746,-0.922034,0.003517,-0.000125,0.015692,12.804689,-2.614408,-29.665222,,,,,,,
1504196115.212559,0.017899,0.397408,-1.620432,0.022995,-0.032497,-0.010356,0.016503,-0.387030,-0.921919,0.000510,0.000296,0.017150,12.954531,-2.688291,-29.889313,,,,,,,
1504196115.222569,0.017671,0.397624,-1.620453,0.015634,-0.013267,-0.000795,0.016291,-0.387228,-0.921840,-0.003703,0.001791,0.013744,12.954531,-2.688291,-29.889313,,,,,,,
1504196115.232579,0.017478,0.397927,-1.620293,0.016722,-0.001571,0.014130,0.016111,-0.387508,-0.921725,-0.006483,0.000027,0.017352,13.029543,-2.687955,-29.889130,,,,,,,
1504196115.242589,0.017196,0.398153,-1.620028,0.004909,-0.006812,0.021592,0.015851,-0.387717,-0.921642,-0.007794,-0.001764,0.016644,13.029543,-2.687955,-29.889130,,,,,,,
1504196115.252599,0.017017,0.398203,-1.619784,-0.009919,0.003969,0.017278,0.015685,-0.387763,-0.921626,-0.004652,-0.000512,0.011180,13.029345,-2.612958,-29.889679,,,,,,,
1504196115.262609,0.017109,0.398135,-1.619651,-0.018215,0.026426,0.005483,0.015770,-0.387700,-0.921651,-0.005196,-0.002650,0.010793,13.029345,-2.612958,-29.889679,,,,,,,
1504196115.272618,0.017370,0.397881,-1.619572,-0.038354,0.041511,0.003288,0.016012,-0.387466,-0.921745,-0.005469,-0.001115,0.009941,12.954729,-2.763288,-29.888733,,,,,,,
1504196115.282628,0.017667,0.397568,-1.619456,-0.044746,0.043691,0.005409,0.016288,-0.387177,-0.921862,-0.007072,-0.004196,0.008959,12.954729,-2.763288,-29.888733,,,,,,,
1504196115.292638,0.017923,0.397279,-1.619331,-0.038413,0.036176,0.007568,0.016527,-0.386911,-0.921969,-0.005983,-0.004172,0.009432,12.954576,-2.837842,-30.113190,,,,,,,
1504196115.302648,0.018082,0.397104,-1.619255,-0.021434,0.021122,0.002288,0.016674,-0.386750,-0.922034,-0.005154,-0.001434,0.011420,12.954576,-2.837842,-30.113190,,,,,,,
1504196115.312656,0.018097,0.397096,-1.619244,-0.008743,0.002908,-0.004062,0.016688,-0.386742,-0.922037,-0.004313,-0.001488,0.015436,12.879351,-2.613629,-29.890045,,,,,,,
1504196115.322666,0.017985,0.397217,-1.619326,0.003975,-0.012110,-0.010417,0.016584,-0.386854,-0.921992,-0.003019,-0.000811,0.015223,12.879351,-2.613629,-29.890045,,,,,,,
1504196115.332676,0.017812,0.397414,-1.619445,0.011426,-0.016431,-0.013599,0.016423,-0.387035,-0.921919,-0.003560,-0.001134,0.010542,13.104876,-2.688062,-29.663940,,,,,,,
1504196115.342655,0.017613,0.397664,-1.619541,0.007176,-0.013203,-0.011476,0.016238,-0.387266,-0.921825,-0.006015,-0.003100,0.010769,13.104876,-2.688062,-29.663940,,,,,,,
1504196115.352665,0.017373,0.397774,-1.619588,-0.004596,-0.015243,-0.007223,0.016016,-0.387367,-0.921786,-0.006128,-0.004128,0.008990,13.030245,-2.838407,-29.662994,,,,,,,
1504196115.362675,0.017170,0.397769,-1.619631,-0.019507,-0.012990,-0.008319,0.015829,-0.387363,-0.921792,-0.005377,-0.006879,0.006249,13.030245,-2.838407,-29.662994,,,,,,,
1504196115.372685,0.017124,0.397663,-1.619722,-0.027921,-0.000131,-0.011558,0.015787,-0.387264,-0.921834,-0.003504,-0.006931,0.005375,13.029955,-2.763257,-29.738556,,,,,,,
1504196115.382694,0.017232,0.397468,-1.619877,-0.033096,0.014837,-0.019065,0.015888,-0.387085,-0.921907,-0.004215,-0.004898,0.008226,13.029955,-2.763257,-29.738556,,,,,,,
1504196115.392704,0.017455,0.397286,-1.620060,-0.027681,0.023318,-0.021205,0.016095,-0.386917,-0.921974,-0.004453,-0.003570,0.009788,13.104342,-2.612622,-29.889496,,,,,,,
1504196115.402714,0.017685,0.397161,-1.620232,-0.017052,0.020030,-0.017978,0.016307,-0.386802,-0.922019,-0.003704,-0.001977,0.008383,13.104342,-2.612622,-29.889496,,,,,,,
1504196115.412724,0.017848,0.397112,-1.620373,-0.005344,0.017799,-0.015818,0.016458,-0.386757,-0.922035,-0.004327,0.000527,0.008018,13.104128,-2.388059,-29.666168,,,,,,,
1504196115.422734,0.017967,0.397150,-1.620521,0.004190,0.009194,-0.015786,0.016568,-0.386792,-0.922018,-0.003461,0.002392,0.008551,13.104128,-2.388059,-29.666168,,,,,,,
1504196115.432744,0.017973,0.397227,-1.620647,0.006250,0.000650,-0.014699,0.016572,-0.386863,-0.921988,-0.005021,0.003089,0.008933,13.104082,-2.462766,-29.815643,,,,,,,
1504196115.442754,0.017876,0.397252,-1.620765,-0.001299,-0.008881,-0.013627,0.016483,-0.386885,-0.921980,-0.005130,-0.000016,0.003539,13.104082,-2.462766,-29.815643,,,,,,,
1504196115.452764,0.017749,0.397221,-1.620901,-0.008745,-0.008816,-0.017909,0.016367,-0.386857,-0.921995,-0.005457,-0.001861,0.002195,12.879351,-2.613629,-29.890045,,,,,,,
1504196115.462773,0.017754,0.397164,-1.621098,-0.011807,0.005066,-0.023275,0.016371,-0.386805,-0.922016,-0.005171,-0.002294,0.003758,12.879351,-2.613629,-29.890045,,,,,,,
1504196115.472783,0.017883,0.397125,-1.621314,-0.010654,0.015711,-0.023291,0.016490,-0.386769,-0.922029,-0.005962,-0.002117,0.005846,12.879229,-2.613477,-29.965057,,,,,,,
1504196115.482793,0.018090,0.397035,-1.621548,-0.016987,0.022158,-0.026515,0.016681,-0.386686,-0.922061,-0.007313,-0.001330,0.008837,12.879229,-2.613477,-29.965057,,,,,,,
1504196115.492803,0.018375,0.396858,-1.621791,-0.015860,0.029606,-0.026525,0.016946,-0.386523,-0.922124,-0.005884,0.000628,0.002859,12.804918,-2.838971,-29.888550,,,,,,,
1504196115.502811,0.018702,0.396788,-1.622028,-0.006255,0.030591,-0.025442,0.017248,-0.386458,-0.922146,-0.004782,0.001601,0.005810,12.804918,-2.838971,-29.888550,,,,,,,
1504196115.512821,0.019022,0.396818,-1.622313,-0.006333,0.019936,-0.026491,0.017543,-0.386485,-0.922129,-0.001460,0.000697,0.014780,12.730028,-2.839459,-29.813751,,,,,,,
1504196115.522831,0.019223,0.396775,-1.622590,-0.012872,0.004004,-0.024340,0.017728,-0.386446,-0.922142,0.001055,0.000368,0.012260,12.730028,-2.839459,-29.813751,,,,,,,
1504196115.532841,0.019309,0.396661,-1.622824,-0.023667,-0.008699,-0.018999,0.017808,-0.386341,-0.922184,0.002638,-0.001675,0.012043,12.954836,-2.763440,-29.813751,,,,,,,
1504196115.542851,0.019250,0.396519,-1.623014,-0.022655,-0.015102,-0.017919,0.017755,-0.386210,-0.922240,0.000647,-0.000707,0.012664,12.954836,-2.763440,-29.813751,,,,,,,
1504196115.552860,0.019211,0.396404,-1.623191,-0.010842,-0.005609,-0.017915,0.017720,-0.386104,-0.922285,-0.002156,0.002421,0.011854,12.879992,-2.689221,-29.589508,,,,,,,
1504196115.562871,0.019262,0.396504,-1.623366,0.012751,0.008050,-0.020033,0.017767,-0.386196,-0.922246,-0.004812,0.004818,0.015721,12.879992,-2.689221,-29.589508,,,,,,,
1504196115.572881,0.019289,0.396781,-1.623503,0.026538,0.001535,-0.013592,0.017790,-0.386451,-0.922138,-0.004972,0.005744,0.020054,12.954805,-2.838147,-29.963196,,,,,,,
1504196115.582891,0.019193,0.397044,-1.623577,0.017830,-0.015451,-0.006105,0.017698,-0.386694,-0.922038,-0.001433,0.003164,0.016917,12.954805,-2.838147,-29.963196,,,,,,,
1504196115.592900,0.018949,0.397166,-1.623658,-0.001494,-0.031274,-0.007178,0.017473,-0.386806,-0.921996,0.000258,0.000026,0.013502,13.029467,-2.613111,-29.814697,,,,,,,
1504196115.602910,0.018684,0.397069,-1.623769,-0.027058,-0.028928,-0.011497,0.017229,-0.386717,-0.922037,0.000090,-0.001985,0.012461,13.029467,-2.613111,-29.814697,,,,,,,
1504196115.612889,0.018487,0.396767,-1.623933,-0.049332,-0.018080,-0.020093,0.017050,-0.386439,-0.922158,-0.003164,-0.003897,0.013344,12.954653,-2.688443,-29.814331,,,,,,,
1504196115.622899,0.018461,0.396302,-1.624145,-0.063018,0.001217,-0.025487,0.017029,-0.386010,-0.922338,-0.005875,-0.004020,0.013494,12.954653,-2.688443,-29.814331,,,,,,,
1504196115.632909,0.018509,0.395794,-1.624387,-0.061865,0.009733,-0.028702,0.017077,-0.385541,-0.922533,-0.008288,-0.002704,0.014116,12.954119,-2.612988,-30.039856,,,,,,,
1504196115.642919,0.018612,0.395396,-1.624641,-0.045846,0.010666,-0.029742,0.017175,-0.385174,-0.922684,-0.008447,-0.001026,0.013520,12.954119,-2.612988,-30.039856,,,,,,,
1504196115.652927,0.018606,0.395222,-1.624839,-0.016066,0.001884,-0.022189,0.017171,-0.385013,-0.922751,-0.008031,0.001621,0.012275,12.879305,-2.688336,-30.039490,,,,,,,
1504196115.662937,0.018513,0.395294,-1.625038,0.007354,-0.006833,-0.025334,0.017085,-0.385079,-0.922725,-0.007624,0.003167,0.014125,12.879305,-2.688336,-30.039490,,,,,,,
1504196115.672947,0.018403,0.395390,-1.625342,0.011556,-0.019648,-0.032776,0.016982,-0.385168,-0.922690,-0.003768,0.006445,0.012396,12.954729,-2.763288,-29.888733,,,,,,,
1504196115.682957,0.018304,0.395379,-1.625729,0.001912,-0.025959,-0.034916,0.016891,-0.385158,-0.922696,0.000321,0.005260,0.005704,12.954729,-2.763288,-29.888733,,,,,,,
1504196115.692967,0.018211,0.395247,-1.626114,-0.017297,-0.025802,-0.033882,0.016806,-0.385036,-0.922749,0.001062,0.002925,0.005543,12.954531,-2.688291,-29.889313,,,,,,,
1504196115.702976,0.018160,0.394902,-1.626456,-0.039701,-0.022425,-0.028591,0.016761,-0.384718,-0.922882,0.002983,0.000837,0.004883,12.954531,-2.688291,-29.889313,,,,,,,
1504196115.712986,0.018114,0.394465,-1.626710,-0.047150,-0.015976,-0.022211,0.016722,-0.384314,-0.923051,0.002306,-0.000558,0.004457,13.029345,-2.612958,-29.889679,,,,,,,
1504196115.722996,0.018104,0.394070,-1.626952,-0.046056,-0.012788,-0.022215,0.016716,-0.383950,-0.923203,0.002083,-0.000480,0.010880,13.029345,-2.612958,-29.889679,,,,,,,
1504196115.733006,0.018082,0.393783,-1.627208,-0.031128,-0.016104,-0.025386,0.016697,-0.383684,-0.923313,0.001293,0.001803,0.013859,12.954195,-2.463590,-29.740997,,,,,,,
1504196115.743016,0.018025,0.393640,-1.627502,-0.015165,-0.022626,-0.027482,0.016645,-0.383552,-0.923369,0.001299,0.002891,0.015608,12.954195,-2.463590,-29.740997,,,,,,,
1504196115.753026,0.017855,0.393596,-1.627810,-0.005639,-0.032295,-0.027448,0.016489,-0.383512,-0.923389,0.000708,0.003171,0.013583,12.728792,-2.389295,-29.892120,,,,,,,
1504196115.763036,0.017602,0.393563,-1.628066,-0.004601,-0.033374,-0.023175,0.016256,-0.383482,-0.923405,-0.000814,0.003218,0.010472,12.728792,-2.389295,-29.892120,,,,,,,
1504196115.773046,0.017323,0.393523,-1.628269,-0.009939,-0.031203,-0.018918,0.015998,-0.383444,-0.923425,-0.002540,0.000907,0.009317,12.803377,-2.313672,-30.042480,,,,,,,
1504196115.783055,0.017127,0.393335,-1.628463,-0.033321,-0.021419,-0.021110,0.015818,-0.383271,-0.923500,-0.002604,-0.002090,0.009896,12.803377,-2.313672,-30.042480,,,,,,,
1504196115.793065,0.017084,0.392880,-1.628672,-0.053440,-0.003138,-0.022245,0.015782,-0.382850,-0.923676,-0.002506,-0.001641,0.004547,12.502993,-2.165006,-30.044342,,,,,,,
1504196115.803075,0.017272,0.392301,-1.628857,-0.062830,0.024642,-0.020175,0.015959,-0.382316,-0.923894,-0.004011,-0.002480,0.002233,12.502993,-2.165006,-30.044342,,,,,,,
1504196115.813085,0.017584,0.391782,-1.628997,-0.056369,0.035238,-0.014844,0.016251,-0.381836,-0.924087,-0.004959,-0.001648,0.008102,12.654268,-2.539792,-29.816193,,,,,,,
1504196115.823093,0.017855,0.391351,-1.629074,-0.044733,0.026610,-0.008404,0.016505,-0.381437,-0.924247,-0.003489,-0.000322,0.008110,12.654268,-2.539792,-29.816193,,,,,,,
1504196115.833103,0.017976,0.391045,-1.629120,-0.031066,0.003051,-0.005137,0.016618,-0.381154,-0.924362,-0.000597,-0.000071,0.005905,12.504244,-2.615170,-29.966003,,,,,,,
1504196115.843113,0.017911,0.390863,-1.629248,-0.014209,-0.026918,-0.010392,0.016559,-0.380987,-0.924432,0.005078,0.002859,0.006250,12.504244,-2.615170,-29.966003,,,,,,,
1504196115.853087,0.017681,0.390719,-1.629471,-0.006883,-0.049346,-0.017813,0.016348,-0.380854,-0.924491,0.008005,0.004831,0.004126,12.953447,-2.163587,-29.743256,,,,,,,
1504196115.863097,0.017347,0.390656,-1.629720,-0.001569,-0.052583,-0.018866,0.016039,-0.380795,-0.924520,0.006620,0.002881,0.002813,12.953447,-2.163587,-29.743256,,,,,,,
1504196115.873106,0.017039,0.390635,-1.629910,-0.001477,-0.037670,-0.013556,0.015755,-0.380776,-0.924533,0.002968,0.001335,0.003589,12.428301,-2.240506,-29.968994,,,,,,,
1504196115.883116,0.016868,0.390607,-1.630001,-0.008785,-0.013109,-0.006140,0.015597,-0.380749,-0.924547,-0.000414,-0.000537,0.005785,12.428301,-2.240506,-29.968994,,,,,,,
1504196115.893095,0.016862,0.390556,-1.629991,-0.013957,0.010370,-0.000853,0.015591,-0.380702,-0.924566,-0.003460,-0.002202,0.006018,12.879015,-2.388928,-29.741760,,,,,,,
1504196115.903105,0.017039,0.390457,-1.629955,-0.019142,0.029591,0.000172,0.015756,-0.380611,-0.924601,-0.004510,-0.003071,0.006235,12.879015,-2.388928,-29.741760,,,,,,,
1504196115.913115,0.017339,0.390294,-1.629945,-0.027625,0.033926,-0.003052,0.016034,-0.380460,-0.924658,-0.003278,-0.002078,0.009268,12.654055,-2.539487,-29.966187,,,,,,,
1504196115.923125,0.017680,0.390003,-1.630045,-0.040404,0.030844,-0.012675,0.016351,-0.380191,-0.924763,-0.001322,-0.001584,0.008549,12.654055,-2.539487,-29.966187,,,,,,,
1504196115.933134,0.018007,0.389590,-1.630257,-0.049988,0.025607,-0.024424,0.016657,-0.379809,-0.924915,-0.001505,-0.003019,0.004047,12.653780,-2.389646,-29.892303,,,,,,,
1504196115.943144,0.018352,0.389140,-1.630550,-0.053169,0.024573,-0.029765,0.016979,-0.379393,-0.925080,-0.002056,-0.003938,0.004502,12.653780,-2.389646,-29.892303,,,,,,,
1504196115.953154,0.018647,0.388715,-1.630807,-0.051036,0.025617,-0.027627,0.017255,-0.379000,-0.925236,-0.004666,-0.004332,0.005619,12.653292,-2.239484,-29.968445,,,,,,,
1504196115.963164,0.018867,0.388396,-1.630998,-0.039333,0.024448,-0.022267,0.017461,-0.378705,-0.925353,-0.007100,-0.004627,0.007048,12.653292,-2.239484,-29.968445,,,,,,,
1504196115.973173,0.019040,0.388181,-1.631126,-0.019086,0.025338,-0.015828,0.017622,-0.378505,-0.925431,-0.008101,0.000118,0.005311,12.729006,-2.613858,-30.115417,,,,,,,
1504196115.983183,0.019169,0.388087,-1.631212,-0.003134,0.020938,-0.012589,0.017743,-0.378418,-0.925465,-0.008008,0.004654,0.006199,12.729006,-2.613858,-30.115417,,,,,,,
1504196115.993193,0.019161,0.388101,-1.631288,0.006326,0.003808,-0.011474,0.017735,-0.378431,-0.925459,-0.007237,0.005140,0.007567,12.653902,-2.389783,-29.817322,,,,,,,
1504196116.003203,0.019029,0.388057,-1.631374,-0.000179,-0.008927,-0.011462,0.017613,-0.378391,-0.925478,-0.005452,0.005008,0.003588,12.653902,-2.389783,-29.817322,,,,,,,
1504196116.013212,0.018922,0.387925,-1.631475,-0.007573,-0.001406,-0.014689,0.017515,-0.378268,-0.925530,-0.007322,0.004458,0.001687,12.878786,-2.388623,-29.891754,,,,,,,
1504196116.023222,0.018861,0.387759,-1.631543,-0.018198,0.006135,-0.011517,0.017460,-0.378115,-0.925594,-0.008472,0.002108,0.004100,12.878786,-2.388623,-29.891754,,,,,,,
1504196116.033232,0.018829,0.387496,-1.631553,-0.030981,0.012625,-0.005145,0.017432,-0.377871,-0.925694,-0.010031,0.000872,0.004857,12.878786,-2.388623,-29.891754,,,,,,,
1504196116.043242,0.018755,0.387123,-1.631443,-0.041680,0.014831,0.004441,0.017366,-0.377526,-0.925836,-0.011201,-0.000099,0.004343,12.878786,-2.388623,-29.891754,,,,,,,
1504196116.053252,0.018601,0.386835,-1.631269,-0.036470,0.003057,0.010877,0.017226,-0.377259,-0.925948,-0.009642,-0.002502,0.008208,12.653978,-2.464643,-29.891724,,,,,,,
1504196116.063261,0.018319,0.386664,-1.631039,-0.024901,-0.014097,0.017332,0.016965,-0.377101,-0.926017,-0.007917,-0.001775,0.012214,12.653978,-2.464643,-29.891724,,,,,,,
1504196116.073271,0.017845,0.386622,-1.630824,-0.007964,-0.032352,0.015260,0.016527,-0.377062,-0.926041,-0.006761,-0.000456,0.012436,12.653978,-2.464643,-29.891724,,,,,,,
1504196116.083281,0.017280,0.386743,-1.630658,0.006929,-0.042060,0.008899,0.016003,-0.377174,-0.926004,-0.006802,-0.000207,0.012583,12.653978,-2.464643,-29.891724,,,,,,,
1504196116.093291,0.016687,0.386977,-1.630547,0.015479,-0.043194,0.004648,0.015452,-0.377390,-0.925925,-0.007457,-0.000372,0.014014,12.728411,-2.239301,-29.893250,,,,,,,
1504196116.103300,0.016118,0.387217,-1.630398,0.006996,-0.033542,0.009954,0.014924,-0.377612,-0.925843,-0.009477,-0.001889,0.015260,12.728411,-2.239301,-29.893250,,,,,,,
1504196116.113310,0.015616,0.387329,-1.630155,-0.009975,-0.017428,0.016302,0.014458,-0.377716,-0.925808,-0.011880,-0.004181,0.013714,13.103670,-2.387464,-29.966187,,,,,,,
1504196116.123320,0.015281,0.387240,-1.629872,-0.036500,0.001966,0.018358,0.014149,-0.377634,-0.925847,-0.012363,-0.007116,0.014271,13.103670,-2.387464,-29.966187,,,,,,,
1504196116.133330,0.015117,0.386904,-1.629606,-0.064174,0.009650,0.018298,0.013999,-0.377323,-0.925976,-0.009544,-0.008083,0.015224,12.803377,-2.313672,-30.042480,,,,,,,
1504196116.143339,0.014992,0.386339,-1.629348,-0.079143,0.006573,0.020413,0.013887,-0.376800,-0.926191,-0.006074,-0.008531,0.011991,12.803377,-2.313672,-30.042480,,,,,,,
1504196116.153349,0.014818,0.385745,-1.629064,-0.073862,0.000133,0.021501,0.013729,-0.376249,-0.926417,-0.005794,-0.006868,0.010020,12.728594,-2.314298,-29.892670,,,,,,,
1504196116.163328,0.014600,0.385253,-1.628823,-0.059997,-0.004240,0.016197,0.013529,-0.375794,-0.926604,-0.006495,-0.004486,0.012664,12.728594,-2.314298,-29.892670,,,,,,,
1504196116.173338,0.014395,0.384933,-1.628678,-0.036476,-0.004426,0.006632,0.013341,-0.375497,-0.926728,-0.006505,-0.000998,0.013672,12.652651,-2.163892,-30.268982,,,,,,,
1504196116.183348,0.014293,0.384744,-1.628649,-0.024643,0.000814,-0.004030,0.013247,-0.375322,-0.926800,-0.005801,0.000596,0.015576,12.652651,-2.163892,-30.268982,,,,,,,
1504196116.193358,0.014261,0.384633,-1.628676,-0.026800,-0.002365,-0.004028,0.013218,-0.375219,-0.926842,-0.002034,-0.002710,0.015495,12.653414,-2.239636,-29.893433,,,,,,,
1504196116.203368,0.014089,0.384449,-1.628607,-0.037629,-0.016141,0.006651,0.013060,-0.375048,-0.926913,-0.001372,-0.007001,0.007861,12.653414,-2.239636,-29.893433,,,,,,,
1504196116.213377,0.013768,0.384116,-1.628469,-0.048399,-0.025648,0.011986,0.012764,-0.374740,-0.927042,-0.001030,-0.008012,0.000925,12.503069,-2.239865,-30.118805,,,,,,,
1504196116.223387,0.013415,0.383710,-1.628311,-0.049469,-0.025641,0.013052,0.012439,-0.374363,-0.927199,-0.001224,-0.006038,0.001051,12.503069,-2.239865,-30.118805,,,,,,,
1504196116.233397,0.013070,0.383301,-1.628182,-0.044056,-0.019288,0.007714,0.012121,-0.373984,-0.927356,-0.004812,-0.002206,0.002368,12.428896,-2.390805,-29.817871,,,,,,,
1504196116.243407,0.012812,0.382926,-1.628111,-0.039671,-0.008663,0.001300,0.011884,-0.373636,-0.927499,-0.007428,-0.000174,0.003518,12.428896,-2.390805,-29.817871,,,,,,,
1504196116.253416,0.012611,0.382621,-1.628037,-0.034254,0.000881,0.000226,0.011698,-0.373353,-0.927616,-0.010569,-0.001494,0.004199,12.653978,-2.464643,-29.891724,,,,,,,
1504196116.263426,0.012488,0.382456,-1.627958,-0.026685,0.012538,-0.000847,0.011585,-0.373200,-0.927679,-0.011570,-0.005340,0.006307,12.653978,-2.464643,-29.891724,,,,,,,
1504196116.273436,0.012416,0.382441,-1.627906,-0.022358,0.016765,-0.005115,0.011518,-0.373187,-0.927685,-0.013746,-0.009839,0.009319,12.653109,-2.164487,-29.968994,,,,,,,
1504196116.283446,0.012336,0.382471,-1.627941,-0.019153,0.011415,-0.013637,0.011445,-0.373214,-0.927675,-0.013566,-0.010682,0.009157,12.653109,-2.164487,-29.968994,,,,,,,
1504196116.293455,0.012314,0.382537,-1.628089,-0.009517,0.009212,-0.023222,0.011424,-0.373276,-0.927650,-0.011531,-0.009873,0.005409,12.653597,-2.314633,-29.892853,,,,,,,
1504196116.303465,0.012312,0.382713,-1.628318,0.000089,0.005938,-0.028535,0.011421,-0.373438,-0.927585,-0.009849,-0.008657,0.008670,12.653597,-2.314633,-29.892853,,,,,,,
1504196116.313475,0.012255,0.382911,-1.628551,0.000000,-0.003657,-0.025315,0.011367,-0.373623,-0.927511,-0.008575,-0.006733,0.012838,12.578554,-2.389676,-30.042480,,,,,,,
1504196116.323485,0.012082,0.382978,-1.628712,-0.011846,-0.013160,-0.017846,0.011207,-0.373684,-0.927488,-0.007789,-0.004764,0.011518,12.578554,-2.389676,-30.042480,,,,,,,
1504196116.333494,0.011889,0.382927,-1.628818,-0.028920,-0.011959,-0.014675,0.011028,-0.373637,-0.927510,-0.007198,-0.007665,0.011097,12.428377,-2.315351,-30.043396,,,,,,,
1504196116.343504,0.011745,0.382698,-1.628894,-0.044867,-0.003308,-0.011515,0.010896,-0.373424,-0.927597,-0.007188,-0.006794,0.012313,12.428377,-2.315351,-30.043396,,,,,,,
1504196116.353514,0.011656,0.382363,-1.628931,-0.053394,-0.000048,-0.007265,0.010814,-0.373114,-0.927722,-0.006938,-0.006494,0.013217,12.653444,-2.389188,-30.117310,,,,,,,
1504196116.363524,0.011527,0.382054,-1.628958,-0.046971,0.000964,-0.009390,0.010696,-0.372828,-0.927839,-0.009155,-0.005865,0.014448,12.653444,-2.389188,-30.117310,,,,,,,
1504196116.373534,0.011393,0.381887,-1.628968,-0.025621,0.003979,-0.006154,0.010572,-0.372673,-0.927903,-0.010328,-0.004586,0.013642,12.728289,-2.239148,-29.968262,,,,,,,
1504196116.383543,0.011241,0.381920,-1.628931,-0.007497,0.003823,-0.002919,0.010431,-0.372703,-0.927892,-0.012262,-0.002404,0.017324,12.728289,-2.239148,-29.968262,,,,,,,
1504196116.393553,0.011036,0.382080,-1.628824,-0.000092,-0.000511,0.003508,0.010240,-0.372852,-0.927834,-0.011797,-0.002026,0.020471,12.502626,-2.015012,-30.045471,,,,,,,
1504196116.403563,0.010727,0.382273,-1.628625,-0.009819,-0.010035,0.014183,0.009953,-0.373030,-0.927766,-0.009175,-0.006624,0.020799,12.502626,-2.015012,-30.045471,,,,,,,
1504196116.413573,0.010327,0.382350,-1.628399,-0.029099,-0.019470,0.015234,0.009581,-0.373102,-0.927741,-0.008650,-0.011892,0.020056,12.728228,-2.164304,-29.893799,,,,,,,
1504196116.423582,0.009972,0.382247,-1.628200,-0.053602,-0.017137,0.013053,0.009252,-0.373006,-0.927783,-0.006903,-0.015376,0.020099,12.728228,-2.164304,-29.893799,,,,,,,
1504196116.433592,0.009688,0.381977,-1.628016,-0.071629,-0.006332,0.009800,0.008990,-0.372756,-0.927886,-0.008028,-0.017564,0.021407,12.878588,-2.313626,-29.892303,,,,,,,
1504196116.443571,0.009433,0.381599,-1.627808,-0.072671,-0.002067,0.012994,0.008754,-0.372405,-0.928029,-0.009670,-0.015931,0.020192,12.878588,-2.313626,-29.892303,,,,,,,
1504196116.453581,0.009132,0.381367,-1.627551,-0.048156,-0.003342,0.017310,0.008476,-0.372189,-0.928118,-0.011223,-0.011813,0.021075,12.428026,-2.090650,-29.895111,,,,,,,
1504196116.463591,0.008806,0.381465,-1.627222,-0.019351,-0.000393,0.023760,0.008173,-0.372281,-0.928084,-0.011958,-0.011005,0.027251,12.428026,-2.090650,-29.895111,,,,,,,
1504196116.473601,0.008414,0.381729,-1.626861,-0.005487,-0.002641,0.022722,0.007808,-0.372526,-0.927989,-0.014202,-0.009097,0.028453,12.428026,-2.090650,-29.895111,,,,,,,
1504196116.483610,0.008065,0.381982,-1.626552,-0.009682,0.001658,0.016305,0.007484,-0.372760,-0.927898,-0.015052,-0.011181,0.024303,12.428026,-2.090650,-29.895111,,,,,,,
1504196116.493620,0.007857,0.382097,-1.626332,-0.031956,0.012501,0.008777,0.007290,-0.372867,-0.927856,-0.014599,-0.015728,0.019516,12.727846,-2.014295,-29.894928,,,,,,,
1504196116.503630,0.007824,0.382016,-1.626188,-0.052090,0.025455,0.003383,0.007260,-0.372791,-0.927887,-0.013592,-0.018078,0.017303,12.727846,-2.014295,-29.894928,,,,,,,
1504196116.513640,0.007883,0.381848,-1.626031,-0.065898,0.034086,0.006547,0.007315,-0.372636,-0.927949,-0.013693,-0.022398,0.016755,12.427507,-1.790952,-29.747375,,,,,,,
1504196116.523650,0.007918,0.381688,-1.625794,-0.067012,0.033016,0.016155,0.007348,-0.372487,-0.928008,-0.013635,-0.023783,0.019912,12.427507,-1.790952,-29.747375,,,,,,,
1504196116.533659,0.007850,0.381653,-1.625444,-0.053288,0.020101,0.026876,0.007285,-0.372455,-0.928022,-0.011649,-0.023938,0.022947,12.427660,-1.940640,-29.896240,,,,,,,
1504196116.543669,0.007647,0.381778,-1.625092,-0.037409,0.001854,0.024801,0.007096,-0.372571,-0.927976,-0.009553,-0.022570,0.026808,12.427660,-1.940640,-29.896240,,,,,,,
1504196116.553679,0.007328,0.382066,-1.624829,-0.021530,-0.018519,0.019527,0.006800,-0.372839,-0.927871,-0.005716,-0.021891,0.028778,12.427767,-1.940793,-29.821259,,,,,,,
1504196116.563689,0.006890,0.382394,-1.624645,-0.019510,-0.036648,0.015292,0.006392,-0.373143,-0.927752,-0.002623,-0.020686,0.028231,12.427767,-1.940793,-29.821259,,,,,,,
1504196116.573698,0.006389,0.382671,-1.624423,-0.031309,-0.041886,0.021683,0.005927,-0.373400,-0.927652,-0.000632,-0.023710,0.026437,12.352312,-1.716290,-29.748108,,,,,,,
1504196116.583708,0.005976,0.382747,-1.624100,-0.052535,-0.022542,0.032285,0.005544,-0.373470,-0.927626,-0.000890,-0.027821,0.017485,12.352312,-1.716290,-29.748108,,,,,,,
1504196116.593718,0.005743,0.382629,-1.623650,-0.069443,0.003160,0.042883,0.005328,-0.373361,-0.927671,-0.001879,-0.029120,0.012678,12.502428,-1.940015,-30.046051,,,,,,,
1504196116.603728,0.005692,0.382445,-1.623100,-0.077878,0.020269,0.052443,0.005281,-0.373190,-0.927740,-0.000581,-0.031168,0.012197,12.502428,-1.940015,-30.046051,,,,,,,
1504196116.613737,0.005726,0.382181,-1.622464,-0.082148,0.024557,0.062033,0.005313,-0.372945,-0.927838,0.002057,-0.032069,0.009442,12.502657,-1.940305,-29.896057,,,,,,,
1504196116.623747,0.005729,0.382005,-1.621748,-0.068348,0.019108,0.069536,0.005316,-0.372782,-0.927904,0.002802,-0.031881,0.007692,12.502657,-1.940305,-29.896057,,,,,,,
1504196116.633757,0.005644,0.382091,-1.620976,-0.040693,0.010351,0.074933,0.005237,-0.372862,-0.927872,0.004757,-0.031603,0.009644,12.426973,-1.715497,-29.972931,,,,,,,
1504196116.643767,0.005445,0.382453,-1.620185,-0.011972,-0.000543,0.077134,0.005051,-0.373197,-0.927738,0.005218,-0.029620,0.011219,12.426973,-1.715497,-29.972931,,,,,,,
1504196116.653776,0.005296,0.383036,-1.619404,0.017992,0.006672,0.075049,0.004912,-0.373738,-0.927521,0.005693,-0.028056,0.007141,12.202623,-2.016355,-30.046204,,,,,,,
1504196116.663786,0.005214,0.383899,-1.618582,0.044757,0.020299,0.080406,0.004835,-0.374539,-0.927199,0.003649,-0.027195,0.005766,12.202623,-2.016355,-30.046204,,,,,,,
1504196116.673796,0.005193,0.384957,-1.617678,0.059734,0.028694,0.087887,0.004813,-0.375520,-0.926802,0.002450,-0.027740,0.006987,12.202425,-1.941358,-30.046783,,,,,,,
1504196116.683806,0.005216,0.386054,-1.616750,0.058675,0.029767,0.090016,0.004832,-0.376536,-0.926390,0.004231,-0.029455,0.004011,12.202425,-1.941358,-30.046783,,,,,,,
1504196116.693816,0.005308,0.387152,-1.615808,0.054433,0.032998,0.092135,0.004915,-0.377553,-0.925975,0.007948,-0.032023,0.003215,11.977358,-2.091779,-30.346222,,,,,,,
1504196116.703825,0.005431,0.388276,-1.614864,0.050172,0.033035,0.093191,0.005027,-0.378594,-0.925549,0.009256,-0.035118,0.006985,11.977358,-2.091779,-30.346222,,,,,,,
1504196116.713835,0.005590,0.389407,-1.613950,0.047004,0.034131,0.091045,0.005171,-0.379640,-0.925120,0.009401,-0.035918,0.012171,11.977892,-2.167218,-30.120667,,,,,,,
1504196116.723845,0.005732,0.390444,-1.613091,0.034179,0.025722,0.084629,0.005301,-0.380599,-0.924725,0.010736,-0.035035,0.015362,11.977892,-2.167218,-30.120667,,,,,,,
1504196116.733824,0.005820,0.391323,-1.612290,0.026710,0.021528,0.080350,0.005380,-0.381412,-0.924390,0.010932,-0.031735,0.013409,12.128038,-2.091992,-29.895844,,,,,,,
1504196116.743834,0.005927,0.392103,-1.611476,0.027876,0.033241,0.081395,0.005477,-0.382133,-0.924091,0.008164,-0.026467,0.011555,12.128038,-2.091992,-29.895844,,,,,,,
1504196116.753844,0.006182,0.392893,-1.610594,0.038683,0.053394,0.087780,0.005711,-0.382863,-0.923788,0.006634,-0.021999,0.013525,11.977846,-2.017667,-29.896790,,,,,,,
1504196116.763853,0.006615,0.393798,-1.609602,0.053762,0.076703,0.098437,0.006108,-0.383698,-0.923438,0.005473,-0.018981,0.014747,11.977846,-2.017667,-29.896790,,,,,,,
1504196116.773863,0.007128,0.394863,-1.608472,0.075114,0.086105,0.112332,0.006579,-0.384682,-0.923026,0.006223,-0.015846,0.016104,12.202501,-2.016217,-30.121216,,,,,,,
1504196116.783873,0.007557,0.396161,-1.607234,0.094136,0.068891,0.123066,0.006972,-0.385880,-0.922523,0.009477,-0.015411,0.020286,12.202501,-2.016217,-30.121216,,,,,,,
1504196116.793883,0.007725,0.397563,-1.605985,0.097028,0.030507,0.125269,0.007122,-0.387173,-0.921980,0.014576,-0.015964,0.024961,11.978533,-2.242826,-29.820099,,,,,,,
1504196116.803892,0.007549,0.398930,-1.604847,0.086109,-0.009878,0.112507,0.006956,-0.388433,-0.921451,0.016527,-0.016779,0.027850,11.978533,-2.242826,-29.820099,,,,,,,
1504196116.813902,0.007253,0.400220,-1.603937,0.070104,-0.024637,0.091152,0.006679,-0.389621,-0.920951,0.017750,-0.020413,0.031028,12.203218,-2.166654,-29.895081,,,,,,,
1504196116.823912,0.007085,0.401542,-1.603186,0.056371,-0.015983,0.080433,0.006521,-0.390838,-0.920436,0.018656,-0.027222,0.039806,12.203218,-2.166654,-29.895081,,,,,,,
1504196116.833922,0.007019,0.402847,-1.602421,0.037244,-0.005169,0.085711,0.006457,-0.392039,-0.919926,0.019086,-0.033773,0.049229,11.903337,-2.168164,-29.820862,,,,,,,
1504196116.843936,0.007008,0.404068,-1.601486,0.021273,0.007736,0.103801,0.006443,-0.393162,-0.919447,0.019023,-0.040813,0.046766,11.903337,-2.168164,-29.820862,,,,,,,
1504196116.853946,0.007170,0.405301,-1.600385,0.020318,0.029046,0.119765,0.006589,-0.394295,-0.918960,0.021564,-0.043953,0.047195,11.978380,-2.317380,-30.044525,,,,,,,
1504196116.863956,0.007520,0.406619,-1.599231,0.025676,0.033266,0.126163,0.006906,-0.395506,-0.918437,0.028082,-0.042879,0.052654,11.978380,-2.317380,-30.044525,,,,,,,
1504196116.873966,0.007227,0.406858,-1.597905,0.021295,0.015193,0.119783,0.006637,-0.395726,-0.918345,0.038667,-0.046001,0.053187,12.127703,-2.091550,-30.120850,,,,,,,
1504196116.883976,0.006577,0.406922,-1.596658,-0.000354,-0.028310,0.112350,0.006040,-0.395784,-0.918324,0.053423,-0.049711,0.047443,12.127703,-2.091550,-30.120850,,,,,,,
1504196116.893985,0.005417,0.406660,-1.595513,-0.035945,-0.083416,0.100644,0.004975,-0.395544,-0.918434,0.063507,-0.054590,0.039878,11.978121,-2.167523,-29.970673,,,,,,,
1504196116.903995,0.005255,0.407215,-1.595059,-0.069199,-0.118272,0.085684,0.004826,-0.396054,-0.918215,0.067715,-0.057911,0.030229,11.978121,-2.167523,-29.970673,,,,,,,
1504196116.914005,0.003744,0.406297,-1.594307,-0.101110,-0.120117,0.063217,0.003439,-0.395210,-0.918584,0.067972,-0.059654,0.028402,12.203112,-2.166516,-29.970093,,,,,,,
1504196116.924015,0.002489,0.405005,-1.593801,-0.139235,-0.098468,0.040697,0.002288,-0.394024,-0.919097,0.062623,-0.057453,0.026809,12.203112,-2.166516,-29.970093,,,,,,,
1504196116.934024,0.001660,0.403338,-1.593500,-0.177264,-0.060842,0.024554,0.001526,-0.392490,-0.919755,0.055602,-0.055920,0.019013,11.902697,-2.092557,-30.121399,,,,,,,
1504196116.944034,0.002327,0.402281,-1.593671,-0.209906,-0.012601,0.019061,0.002141,-0.391518,-0.920168,0.048335,-0.052345,0.014040,11.902697,-2.092557,-30.121399,,,,,,,
1504196116.954044,0.002458,0.400039,-1.593453,-0.227682,0.033365,0.020016,0.002264,-0.389454,-0.921043,0.039972,-0.050853,0.010643,12.052431,-1.942029,-30.047150,,,,,,,
1504196116.964054,0.002929,0.397757,-1.593230,-0.227460,0.061069,0.019968,0.002700,-0.387352,-0.921928,0.037445,-0.048500,0.008979,12.052431,-1.942029,-30.047150,,,,,,,
1504196116.974063,0.003483,0.395578,-1.592988,-0.214643,0.064158,0.022119,0.003214,-0.385342,-0.922768,0.037328,-0.047016,0.009026,11.901979,-1.717862,-29.974213,,,,,,,
1504196116.984073,0.004738,0.394412,-1.593081,-0.200923,0.041683,0.020036,0.004374,-0.384265,-0.923212,0.040121,-0.046261,0.010355,11.901979,-1.717862,-29.974213,,,,,,,
1504196116.994083,0.004858,0.392470,-1.592905,-0.192598,0.010719,0.012633,0.004488,-0.382471,-0.923956,0.042982,-0.045583,0.009802,11.751726,-1.792935,-30.274017,,,,,,,
1504196117.004093,0.004734,0.390589,-1.592874,-0.187405,-0.014884,-0.000122,0.004378,-0.380733,-0.924675,0.046648,-0.044804,0.009315,11.751726,-1.792935,-30.274017,,,,,,,
1504196117.014072,0.004555,0.388772,-1.592894,-0.178885,-0.018149,-0.002236,0.004215,-0.379052,-0.925366,0.048611,-0.044089,0.010510,11.526201,-1.718503,-30.500153,,,,,,,
1504196117.024082,0.005481,0.387938,-1.593189,-0.169236,-0.005441,0.012687,0.005074,-0.378280,-0.925677,0.047569,-0.042878,0.013507,11.526201,-1.718503,-30.500153,,,,,,,
1504196117.034092,0.005368,0.386261,-1.592863,-0.167149,0.001979,0.034026,0.004972,-0.376728,-0.926311,0.042834,-0.044537,0.019969,11.751162,-1.567929,-30.275696,,,,,,,
1504196117.044101,0.005183,0.384590,-1.592348,-0.166171,0.000888,0.050040,0.004804,-0.375179,-0.926940,0.043673,-0.046360,0.018065,11.751162,-1.567929,-30.275696,,,,,,,
1504196117.054111,0.005951,0.383995,-1.592115,-0.155544,-0.002388,0.057522,0.005517,-0.374627,-0.927159,0.044791,-0.046301,0.015721,11.900057,-1.266812,-30.502594,,,,,,,
1504196117.064121,0.006539,0.383569,-1.591782,-0.139691,-0.018497,0.066104,0.006064,-0.374233,-0.927315,0.044015,-0.045872,0.019524,11.900057,-1.266812,-30.502594,,,,,,,
1504196117.074131,0.006937,0.383296,-1.591433,-0.130167,-0.032411,0.063998,0.006434,-0.373979,-0.927415,0.042440,-0.047301,0.021867,11.824800,-1.341550,-30.802246,,,,,,,
1504196117.084140,0.007283,0.383191,-1.591078,-0.120565,-0.034608,0.065073,0.006755,-0.373882,-0.927452,0.042653,-0.050251,0.023429,11.824800,-1.341550,-30.802246,,,,,,,
1504196117.094150,0.007570,0.383239,-1.590721,-0.114129,-0.034645,0.062938,0.007021,-0.373926,-0.927432,0.039656,-0.051962,0.030108,11.974611,-1.041623,-30.429077,,,,,,,
1504196117.104160,0.007795,0.383365,-1.590368,-0.119434,-0.035651,0.060786,0.007229,-0.374043,-0.927383,0.037448,-0.054698,0.037872,11.974611,-1.041623,-30.429077,,,,,,,
1504196117.114170,0.007866,0.383529,-1.590055,-0.129088,-0.051533,0.051182,0.007295,-0.374195,-0.927321,0.034286,-0.058895,0.043563,11.973818,-0.816327,-30.580811,,,,,,,
1504196117.124179,0.007775,0.383739,-1.589879,-0.129150,-0.071752,0.037333,0.007209,-0.374390,-0.927243,0.034310,-0.063140,0.044751,11.973818,-0.816327,-30.580811,,,,,,,
1504196117.134189,0.007687,0.384054,-1.589865,-0.115146,-0.068642,0.021334,0.007127,-0.374682,-0.927126,0.033111,-0.063566,0.044985,11.973589,-0.816022,-30.730835,,,,,,,
1504196117.144199,0.007675,0.384621,-1.589997,-0.096808,-0.058108,0.004263,0.007115,-0.375208,-0.926913,0.028988,-0.064398,0.050479,11.973589,-0.816022,-30.730835,,,,,,,
1504196117.154209,0.007823,0.385323,-1.590294,-0.085971,-0.049647,-0.009615,0.007249,-0.375859,-0.926649,0.028548,-0.064876,0.051450,11.748262,-0.816586,-30.956390,,,,,,,
1504196117.164218,0.008019,0.386081,-1.590710,-0.081616,-0.048596,-0.019222,0.007429,-0.376561,-0.926362,0.028460,-0.067684,0.047914,11.748262,-0.816586,-30.956390,,,,,,,
1504196117.174228,0.008223,0.386952,-1.591214,-0.075219,-0.057156,-0.025606,0.007615,-0.377368,-0.926032,0.030059,-0.069837,0.050040,11.823214,-0.666699,-30.732330,,,,,,,
1504196117.184238,0.008252,0.387962,-1.591723,-0.067888,-0.078517,-0.025560,0.007638,-0.378303,-0.925650,0.029288,-0.071527,0.055274,11.823214,-0.666699,-30.732330,,,,,,,
1504196117.194248,0.007968,0.389087,-1.592310,-0.064895,-0.114751,-0.035103,0.007372,-0.379343,-0.925227,0.029798,-0.074483,0.058634,11.747698,-0.591580,-30.958069,,,,,,,
1504196117.204258,0.007489,0.390334,-1.593066,-0.046862,-0.141512,-0.049974,0.006926,-0.380498,-0.924756,0.032350,-0.077113,0.053403,11.747698,-0.591580,-30.958069,,,,,,,
1504196117.214267,0.006996,0.391790,-1.593969,-0.026464,-0.137393,-0.061692,0.006466,-0.381843,-0.924204,0.031681,-0.077507,0.052577,11.746904,-0.366284,-31.109772,,,,,,,
1504196117.224277,0.006576,0.393461,-1.594847,-0.010231,-0.113008,-0.061710,0.006074,-0.383388,-0.923568,0.025237,-0.081029,0.048857,11.746904,-0.366284,-31.109772,,,,,,,
1504196117.234287,0.006284,0.395273,-1.595592,-0.002501,-0.080038,-0.054281,0.005799,-0.385060,-0.922873,0.017639,-0.088008,0.040885,11.371935,-0.517514,-31.334564,,,,,,,
1504196117.244297,0.006218,0.397089,-1.596243,-0.009691,-0.046942,-0.050079,0.005735,-0.386735,-0.922173,0.014148,-0.095183,0.033928,11.371935,-0.517514,-31.334564,,,,,,,
1504196117.254306,0.006086,0.396910,-1.596798,-0.020221,-0.030869,-0.052260,0.005613,-0.386570,-0.922243,0.015749,-0.100185,0.027529,11.596682,-0.366666,-31.260132,,,,,,,
1504196117.264316,0.005966,0.396709,-1.597369,-0.018133,-0.037279,-0.053313,0.005503,-0.386385,-0.922321,0.017950,-0.101316,0.020435,11.596682,-0.366666,-31.260132,,,,,,,
1504196117.274326,0.005564,0.396726,-1.597906,0.012501,-0.071637,-0.046795,0.005132,-0.386400,-0.922317,0.023081,-0.099561,0.015334,11.222139,-0.593198,-31.334381,,,,,,,
1504196117.284336,0.005116,0.399013,-1.598556,0.067576,-0.123236,-0.041273,0.004714,-0.388509,-0.921433,0.023972,-0.096477,0.008805,11.222139,-0.593198,-31.334381,,,,,,,
1504196117.294315,0.003649,0.400218,-1.599009,0.137577,-0.176026,-0.042126,0.003361,-0.389619,-0.920970,0.022213,-0.095397,0.006450,11.521898,-0.591550,-31.483612,,,,,,,
1504196117.304325,0.001863,0.402030,-1.599610,0.195040,-0.206317,-0.060119,0.001714,-0.391287,-0.920267,0.019602,-0.096918,0.003016,11.521898,-0.591550,-31.483612,,,,,,,
1504196117.314334,0.000153,0.404259,-1.600492,0.231491,-0.202325,-0.088883,0.000141,-0.393338,-0.919394,0.016675,-0.098376,-0.004175,11.520769,-0.141553,-31.487000,,,,,,,
1504196117.324344,-0.000912,0.408206,-1.601795,0.239415,-0.168253,-0.119882,-0.000837,-0.396963,-0.917834,0.012861,-0.095942,-0.012113,11.520769,-0.141553,-31.487000,,,,,,,
1504196117.334354,-0.001709,0.410548,-1.603258,0.231303,-0.126609,-0.138115,-0.001567,-0.399112,-0.916901,0.011256,-0.092664,-0.021896,11.597170,-0.741055,-31.557281,,,,,,,
1504196117.344364,-0.002041,0.412772,-1.604727,0.218849,-0.079625,-0.132882,-0.001870,-0.401150,-0.916010,0.017113,-0.088428,-0.037572,11.597170,-0.741055,-31.557281,,,,,,,
1504196117.354373,-0.002107,0.414918,-1.606000,0.211496,-0.051881,-0.111596,-0.001928,-0.403114,-0.915148,0.018881,-0.085518,-0.046004,11.446108,-0.366590,-31.635498,,,,,,,
1504196117.364383,-0.001573,0.417952,-1.607331,0.193376,-0.044278,-0.098838,-0.001437,-0.405889,-0.913921,0.025272,-0.084009,-0.055622,11.446108,-0.366590,-31.635498,,,,,,,
1504196117.374393,-0.001512,0.419638,-1.608499,0.159335,-0.039722,-0.111714,-0.001381,-0.407430,-0.913235,0.033989,-0.081889,-0.072620,11.070894,-0.367978,-31.786407,,,,,,,
1504196117.384403,-0.001178,0.421050,-1.610038,0.137239,-0.025646,-0.151271,-0.001075,-0.408719,-0.912660,0.040702,-0.077868,-0.093261,11.070894,-0.367978,-31.786407,,,,,,,
1504196117.394413,-0.000499,0.422428,-1.612024,0.139692,-0.009642,-0.189721,-0.000455,-0.409976,-0.912096,0.048291,-0.072385,-0.102705,11.670885,-0.365277,-31.784943,,,,,,,
1504196117.404422,0.000378,0.423854,-1.614317,0.141979,-0.006438,-0.215341,0.000345,-0.411276,-0.911511,0.049765,-0.064066,-0.108097,11.670885,-0.365277,-31.784943,,,,,,,
1504196117.414432,0.001228,0.425198,-1.616795,0.131219,-0.024453,-0.226002,0.001119,-0.412501,-0.910957,0.050563,-0.055425,-0.120141,11.520922,-0.515500,-32.009186,,,,,,,
1504196117.424442,0.001679,0.426398,-1.619251,0.114854,-0.066947,-0.221685,0.001529,-0.413594,-0.910460,0.047132,-0.044932,-0.132692,11.520922,-0.515500,-32.009186,,,,,,,
1504196117.434452,0.001689,0.427408,-1.621701,0.095320,-0.109407,-0.223779,0.001537,-0.414513,-0.910042,0.030735,-0.027778,-0.139885,11.370882,-0.590878,-32.158997,,,,,,,
1504196117.444461,0.001606,0.428208,-1.624317,0.075089,-0.115616,-0.241949,0.001461,-0.415242,-0.909710,0.015461,-0.001415,-0.143497,11.370882,-0.590878,-32.158997,,,,,,,
1504196117.454471,0.001829,0.428814,-1.627198,0.057281,-0.090932,-0.268708,0.001663,-0.415792,-0.909458,-0.008102,0.031957,-0.134075,11.519869,-0.364606,-32.460358,,,,,,,
1504196117.464481,0.002604,0.429422,-1.630275,0.065282,-0.032377,-0.281607,0.002367,-0.416346,-0.909203,-0.034380,0.068735,-0.128013,11.519869,-0.364606,-32.460358,,,,,,,
1504196117.474491,0.004131,0.430268,-1.633238,0.093603,0.051554,-0.263560,0.003755,-0.417115,-0.908846,-0.059205,0.093598,-0.109999,11.220064,-0.440946,-32.460541,,,,,,,
1504196117.484500,0.004450,0.428427,-1.635048,0.116433,0.135483,-0.226287,0.004048,-0.415441,-0.909611,-0.075596,0.106587,-0.082729,11.220064,-0.440946,-32.460541,,,,,,,
1504196117.494510,0.007247,0.429654,-1.637142,0.124247,0.209958,-0.176237,0.006588,-0.416556,-0.909086,-0.084225,0.119483,-0.067110,11.744875,-0.363599,-32.459808,,,,,,,
1504196117.504520,0.010380,0.430721,-1.638642,0.096682,0.264477,-0.124078,0.009431,-0.417526,-0.908616,-0.087297,0.118530,-0.055694,11.744875,-0.363599,-32.459808,,,,,,,
1504196117.514530,0.013626,0.431153,-1.639774,0.025169,0.278889,-0.095408,0.012379,-0.417918,-0.908400,-0.096806,0.121379,-0.050767,11.819826,-0.213696,-32.235687,,,,,,,
1504196117.524540,0.016688,0.430905,-1.640681,-0.036934,0.261268,-0.079473,0.015162,-0.417693,-0.908462,-0.094859,0.131103,-0.062745,11.819826,-0.213696,-32.235687,,,,,,,
1504196117.534549,0.019293,0.430299,-1.641573,-0.062932,0.208209,-0.085829,0.017533,-0.417142,-0.908672,-0.098283,0.133665,-0.057209,11.968920,0.012424,-32.462067,,,,,,,
1504196117.544559,0.021213,0.429725,-1.642651,-0.049637,0.125002,-0.103805,0.019283,-0.416621,-0.908876,-0.096950,0.146464,-0.043929,11.968920,0.012424,-32.462067,,,,,,,
1504196117.554569,0.022283,0.429604,-1.643901,0.007301,0.031840,-0.117419,0.020256,-0.416511,-0.908905,-0.096031,0.161933,-0.046249,12.193850,0.088275,-32.387054,,,,,,,
1504196117.564579,0.022549,0.430237,-1.645284,0.086702,-0.050857,-0.125674,0.020492,-0.417086,-0.908636,-0.101135,0.169680,-0.038065,12.193850,0.088275,-32.387054,,,,,,,
1504196117.574558,0.022043,0.431758,-1.646797,0.177858,-0.132582,-0.136046,0.020018,-0.418468,-0.908011,-0.105101,0.184246,-0.026941,12.193102,0.164035,-32.762604,,,,,,,
1504196117.584568,0.020956,0.434097,-1.648410,0.254266,-0.188615,-0.143287,0.019011,-0.420591,-0.907051,-0.108366,0.188261,-0.019371,12.193102,0.164035,-32.762604,,,,,,,
1504196117.594577,0.019643,0.436893,-1.650083,0.287252,-0.201671,-0.146409,0.017797,-0.423127,-0.905896,-0.111746,0.186768,-0.005985,12.418428,0.164599,-32.537048,,,,,,,
1504196117.604587,0.018477,0.439629,-1.651748,0.268223,-0.179137,-0.145414,0.016719,-0.425604,-0.904755,-0.115336,0.180898,0.002518,12.418428,0.164599,-32.537048,,,,,,,
1504196117.614597,0.017748,0.441851,-1.653421,0.206739,-0.130676,-0.147741,0.016042,-0.427614,-0.903819,-0.117178,0.171022,0.011043,12.493166,0.090533,-32.836334,,,,,,,
1504196117.624607,0.017522,0.443214,-1.655074,0.114308,-0.080898,-0.146922,0.015828,-0.428845,-0.903239,-0.116353,0.156247,0.019817,12.493166,0.090533,-32.836334,,,,,,,
1504196117.634616,0.013994,0.440172,-1.655075,0.016484,-0.028996,-0.146068,0.012660,-0.426095,-0.904590,-0.112971,0.141748,0.026324,12.268969,-0.135785,-32.685181,,,,,,,
1504196117.644626,0.014758,0.439732,-1.656674,-0.058873,0.021706,-0.144153,0.013353,-0.425697,-0.904767,-0.114855,0.131874,0.032743,12.268969,-0.135785,-32.685181,,,,,,,
1504196117.654636,0.015988,0.438857,-1.658237,-0.090514,0.067783,-0.142141,0.014473,-0.424905,-0.905122,-0.115944,0.124475,0.043428,12.267916,0.239367,-32.763000,,,,,,,
1504196117.664646,0.017537,0.438020,-1.659799,-0.074302,0.093225,-0.143225,0.015881,-0.424147,-0.905454,-0.117153,0.122313,0.058011,12.267916,0.239367,-32.763000,,,,,,,
1504196117.674655,0.019227,0.437581,-1.661414,-0.028346,0.100310,-0.147427,0.017414,-0.423750,-0.905612,-0.113300,0.119840,0.075015,12.342073,0.390307,-33.063934,,,,,,,
1504196117.684665,0.020759,0.437597,-1.663096,0.014150,0.072264,-0.155843,0.018802,-0.423764,-0.905578,-0.105670,0.109219,0.091124,12.342073,0.390307,-33.063934,,,,,,,
