timestamp(unix),attitude_roll(radians),attitude_pitch(radians),attitude_yaw(radians),rotation_rate_x(radians/s),rotation_rate_y(radians/s),rotation_rate_z(radians/s),gravity_x(G),gravity_y(G),gravity_z(G),user_acc_x(G),user_acc_y(G),user_acc_z(G),magnetic_field_x(microteslas),magnetic_field_y(microteslas),magnetic_field_z(microteslas),latitude(degree),longitude(degree),altitude(meter),speed(m/s),course(degree),timestamp(unix),User Mark
1504196529.400881,-0.024065,0.387188,1.582146,-0.035662,0.043903,-0.018200,-0.022281,-0.377587,-0.925706,0.018864,0.012306,-0.002028,13.780062,-3.432797,-30.781677,,,,,,,
1504196529.410860,-0.023981,0.387125,1.581634,0.032756,-0.083443,-0.036002,-0.022204,-0.377528,-0.925732,0.023654,0.014735,-0.000248,13.780062,-3.432797,-30.781677,,,,,,,
1504196529.420870,-0.024894,0.387698,1.580935,0.091738,-0.187272,-0.049593,-0.023044,-0.378058,-0.925495,0.028201,0.015311,-0.001278,13.554796,-3.283948,-30.708374,,,,,,,
1504196529.430879,-0.026399,0.388657,1.580164,0.123345,-0.240800,-0.055847,-0.024428,-0.378946,-0.925096,0.031035,0.014749,-0.005110,13.554796,-3.283948,-30.708374,,,,,,,
1504196529.440889,-0.028175,0.389659,1.579420,0.118007,-0.240751,-0.055857,-0.026059,-0.379873,-0.924671,0.024457,0.014624,-0.004223,13.404879,-3.359479,-30.783142,,,,,,,
1504196529.450899,-0.029760,0.390394,1.578748,0.090652,-0.191506,-0.054925,-0.027516,-0.380553,-0.924350,0.015630,0.014983,-0.006818,13.404879,-3.359479,-30.783142,,,,,,,
1504196529.460909,-0.030769,0.390652,1.578176,0.043277,-0.108003,-0.049820,-0.028446,-0.380791,-0.924223,0.000187,0.001336,-0.009187,13.254869,-3.360150,-30.783508,,,,,,,
1504196529.470919,-0.030907,0.390731,1.577683,-0.006094,-0.008500,-0.045811,-0.028573,-0.380864,-0.924189,0.000314,0.001409,-0.009221,13.254869,-3.360150,-30.783508,,,,,,,
1504196529.480928,-0.030221,0.390292,1.577275,-0.047006,0.083470,-0.038573,-0.027944,-0.380459,-0.924376,-0.005625,0.000103,-0.007555,13.254580,-3.285001,-30.859100,,,,,,,
1504196529.490938,-0.028886,0.389632,1.576878,-0.063633,0.139017,-0.038701,-0.026717,-0.379848,-0.924663,-0.007417,-0.000553,-0.008717,13.254580,-3.285001,-30.859100,,,,,,,
1504196529.500948,-0.027215,0.388956,1.576450,-0.062425,0.156057,-0.039797,-0.025179,-0.379223,-0.924963,-0.004408,-0.000904,-0.007319,13.329683,-3.284818,-30.783905,,,,,,,
1504196529.510958,-0.025332,0.388130,1.575883,-0.050906,0.129326,-0.039731,-0.023445,-0.378458,-0.925322,0.012611,0.008127,-0.008074,13.329683,-3.284818,-30.783905,,,,,,,
1504196529.520967,-0.024223,0.387730,1.575386,-0.037406,0.079138,-0.046023,-0.022423,-0.378088,-0.925498,0.011589,0.007757,-0.007897,13.479647,-3.134580,-30.559662,,,,,,,
1504196529.530977,-0.023299,0.387285,1.574716,-0.020795,0.019336,-0.050159,-0.021572,-0.377676,-0.925687,0.018688,0.009374,-0.008792,13.479647,-3.134580,-30.559662,,,,,,,
1504196529.540987,-0.022763,0.387041,1.573959,0.006594,-0.026701,-0.054300,-0.021078,-0.377450,-0.925790,0.023992,0.011468,-0.009406,13.254168,-3.209699,-31.009644,,,,,,,
1504196529.550997,-0.022537,0.387075,1.573196,0.046911,-0.053669,-0.053116,-0.020868,-0.377482,-0.925782,0.025216,0.016169,-0.012298,13.254168,-3.209699,-31.009644,,,,,,,
1504196529.561006,-0.022447,0.387376,1.572498,0.076722,-0.058176,-0.048789,-0.020782,-0.377761,-0.925670,0.025040,0.020919,-0.011708,13.329165,-3.209363,-31.009460,,,,,,,
1504196529.571016,-0.022449,0.387869,1.571890,0.094874,-0.052998,-0.044499,-0.020780,-0.378216,-0.925484,0.020047,0.023007,-0.010139,13.329165,-3.209363,-31.009460,,,,,,,
1504196529.581026,-0.022410,0.388356,1.571377,0.092825,-0.037001,-0.037061,-0.020739,-0.378667,-0.925301,0.016803,0.023961,-0.013756,13.554491,-3.433057,-31.157227,,,,,,,
1504196529.591036,-0.022227,0.388674,1.570983,0.064073,-0.020791,-0.023265,-0.020567,-0.378961,-0.925184,0.017561,0.021997,-0.011416,13.554491,-3.433057,-31.157227,,,,,,,
1504196529.601045,-0.021991,0.388647,1.570769,0.024624,-0.005563,-0.005217,-0.020349,-0.378936,-0.925199,0.014917,0.017822,-0.012942,13.479830,-3.433835,-30.932434,,,,,,,
1504196529.611055,-0.021711,0.388286,1.570762,-0.013798,0.005393,0.013909,-0.020093,-0.378602,-0.925341,0.015210,0.013505,-0.014005,13.479830,-3.433835,-30.932434,,,,,,,
1504196529.621065,-0.021402,0.387662,1.570926,-0.041527,0.017329,0.029850,-0.019812,-0.378025,-0.925583,0.014197,0.011539,-0.010543,13.479982,-3.359296,-30.707977,,,,,,,
1504196529.631075,-0.021012,0.386876,1.571237,-0.059552,0.037716,0.039389,-0.019458,-0.377297,-0.925888,0.011615,0.010751,-0.006943,13.479982,-3.359296,-30.707977,,,,,,,
1504196529.641085,-0.020342,0.385996,1.571571,-0.066759,0.070812,0.039317,-0.018844,-0.376482,-0.926232,0.010116,0.011660,-0.001884,13.329119,-3.284070,-31.158905,,,,,,,
1504196529.651094,-0.019385,0.385073,1.571907,-0.063273,0.104887,0.036059,-0.017964,-0.375627,-0.926597,0.005834,0.015657,0.002753,13.329119,-3.284070,-31.158905,,,,,,,
1504196529.661104,-0.018183,0.384309,1.572218,-0.051348,0.126106,0.031772,-0.016856,-0.374919,-0.926904,0.004664,0.013301,0.003778,13.555407,-3.658505,-30.930542,,,,,,,
1504196529.671114,-0.016997,0.383702,1.572477,-0.037492,0.120672,0.025400,-0.015760,-0.374356,-0.927151,0.002668,0.013958,0.008481,13.555407,-3.658505,-30.930542,,,,,,,
1504196529.681124,-0.015938,0.383241,1.572649,-0.022761,0.091786,0.020138,-0.014781,-0.373928,-0.927340,0.006633,0.015362,0.009966,13.328936,-3.209073,-31.159454,,,,,,,
1504196529.691133,-0.015224,0.382992,1.572760,-0.005002,0.041516,0.018156,-0.014121,-0.373698,-0.927443,0.012030,0.012797,0.008116,13.328936,-3.209073,-31.159454,,,,,,,
1504196529.701143,-0.014889,0.382912,1.572758,0.012819,-0.004437,0.007594,-0.013810,-0.373623,-0.927478,0.015702,0.013012,0.006900,13.479647,-3.358838,-30.932983,,,,,,,
1504196529.711153,-0.014865,0.382988,1.572634,0.022177,-0.040731,-0.001933,-0.013787,-0.373694,-0.927450,0.018899,0.012427,0.010046,13.479647,-3.358838,-30.932983,,,,,,,
1504196529.721163,-0.015071,0.383099,1.572452,0.023064,-0.064175,-0.004025,-0.013978,-0.373797,-0.927405,0.019349,0.011767,0.009635,13.778444,-2.832639,-30.861176,,,,,,,
1504196529.731172,-0.015471,0.383251,1.572401,0.022956,-0.069512,0.008794,-0.014348,-0.373937,-0.927343,0.017278,0.008596,0.007543,13.778444,-2.832639,-30.861176,,,,,,,
1504196529.741152,-0.015878,0.383391,1.572509,0.017706,-0.051363,0.020494,-0.014725,-0.374067,-0.927285,0.013596,0.005217,0.004540,13.403902,-3.059171,-30.935425,,,,,,,
1504196529.751161,-0.016086,0.383501,1.572734,0.010501,-0.015078,0.025755,-0.014916,-0.374170,-0.927240,0.007180,0.003320,0.004694,13.403902,-3.059171,-30.935425,,,,,,,
1504196529.761171,-0.015951,0.383489,1.572963,-0.006305,0.018096,0.025668,-0.014792,-0.374158,-0.927247,0.006568,0.002973,0.008668,13.329119,-3.059812,-30.785583,,,,,,,
1504196529.771181,-0.015604,0.383319,1.573139,-0.020040,0.031004,0.019217,-0.014471,-0.374000,-0.927316,0.007040,0.003257,0.008050,13.329119,-3.059812,-30.785583,,,,,,,
1504196529.781191,-0.015142,0.383003,1.573202,-0.031729,0.031113,0.009590,-0.014044,-0.373708,-0.927440,0.010321,0.003300,0.002987,13.554049,-3.208203,-31.083923,,,,,,,
1504196529.791201,-0.014711,0.382547,1.573159,-0.040291,0.022670,0.001051,-0.013647,-0.373285,-0.927616,0.010626,0.004739,-0.000026,13.554049,-3.208203,-31.083923,,,,,,,
1504196529.801210,-0.014408,0.381951,1.573008,-0.051067,0.003590,-0.008541,-0.013369,-0.372732,-0.927843,0.010485,0.005254,-0.002684,13.554155,-3.208356,-31.008911,,,,,,,
1504196529.811220,-0.014305,0.381287,1.572832,-0.053328,-0.013437,-0.010651,-0.013277,-0.372115,-0.928092,0.008349,0.006011,-0.005166,13.554155,-3.208356,-31.008911,,,,,,,
1504196529.821230,-0.014407,0.380692,1.572730,-0.038503,-0.023155,-0.004204,-0.013375,-0.371563,-0.928311,0.004922,0.006588,-0.007419,13.329607,-3.209958,-30.709473,,,,,,,
1504196529.831240,-0.014653,0.380311,1.572718,-0.020468,-0.031835,0.002246,-0.013605,-0.371210,-0.928449,0.003214,0.005182,-0.004412,13.329607,-3.209958,-30.709473,,,,,,,
1504196529.841249,-0.014940,0.380130,1.572773,0.001911,-0.030959,0.008687,-0.013873,-0.371041,-0.928513,0.003345,0.006798,-0.003738,13.554842,-3.209256,-30.558899,,,,,,,
1504196529.851259,-0.015126,0.380150,1.572866,0.020124,-0.019390,0.011900,-0.014046,-0.371060,-0.928503,0.004921,0.007428,-0.002940,13.554842,-3.209256,-30.558899,,,,,,,
1504196529.861269,-0.015143,0.380165,1.572979,0.021362,0.002977,0.012929,-0.014062,-0.371074,-0.928497,0.003854,0.011226,-0.002640,13.704500,-3.208127,-30.783539,,,,,,,
1504196529.871279,-0.014873,0.380069,1.573117,0.008763,0.030784,0.016059,-0.013811,-0.370985,-0.928536,0.004442,0.011076,-0.005378,13.704500,-3.208127,-30.783539,,,,,,,
1504196529.881288,-0.014435,0.379760,1.573305,-0.018868,0.048057,0.021317,-0.013406,-0.370698,-0.928657,0.003762,0.007890,-0.008828,13.478975,-3.133695,-31.009674,,,,,,,
1504196529.891298,-0.013948,0.379176,1.573592,-0.048674,0.062146,0.029779,-0.012957,-0.370155,-0.928880,-0.000502,0.005043,-0.011321,13.478975,-3.133695,-31.009674,,,,,,,
1504196529.901308,-0.013429,0.378346,1.574042,-0.077573,0.063429,0.050007,-0.012479,-0.369384,-0.929193,0.001691,0.001464,-0.011954,13.703325,-3.057080,-31.309692,,,,,,,
1504196529.911318,-0.013554,0.377732,1.574733,-0.046308,-0.016769,0.070483,-0.012598,-0.368813,-0.929418,0.005259,-0.002387,-0.007090,13.703325,-3.057080,-31.309692,,,,,,,
1504196529.921327,-0.014571,0.377087,1.575354,-0.075770,-0.106023,0.058848,-0.013546,-0.368214,-0.929642,0.005352,-0.002300,0.006943,13.628862,-3.132871,-31.084320,,,,,,,
1504196529.931337,-0.015750,0.376773,1.575756,-0.066210,-0.123130,0.040751,-0.014645,-0.367922,-0.929742,0.013714,-0.005141,0.048073,13.628862,-3.132871,-31.084320,,,,,,,
1504196529.941347,-0.016586,0.376113,1.575892,-0.063558,-0.076234,0.011853,-0.015426,-0.367308,-0.929971,0.007491,0.006834,0.014780,13.554277,-3.208508,-30.933929,,,,,,,
1504196529.951357,-0.016602,0.375589,1.575792,-0.078833,0.002768,-0.007525,-0.015444,-0.366821,-0.930164,0.002108,0.007125,0.024402,13.554277,-3.208508,-30.933929,,,,,,,
1504196529.961367,-0.015827,0.374776,1.575632,-0.080213,0.092297,-0.015157,-0.014728,-0.366064,-0.930473,0.001392,0.006369,0.024711,13.329119,-3.284070,-31.158905,,,,,,,
1504196529.971376,-0.014580,0.373935,1.575534,-0.077541,0.158342,-0.017404,-0.013572,-0.365281,-0.930798,-0.016122,0.001374,-0.004718,13.329119,-3.284070,-31.158905,,,,,,,
1504196529.981386,-0.013183,0.373018,1.575501,-0.082732,0.177559,-0.015312,-0.012276,-0.364427,-0.931151,-0.024329,0.003267,-0.003114,13.254274,-3.209851,-30.934662,,,,,,,
1504196529.991396,-0.011800,0.372104,1.575416,-0.079673,0.157288,-0.019541,-0.010992,-0.363576,-0.931500,-0.019968,0.001088,-0.010303,13.254274,-3.209851,-30.934662,,,,,,,
1504196530.001406,-0.010668,0.371289,1.575190,-0.067100,0.119900,-0.033330,-0.009941,-0.362817,-0.931807,-0.015465,-0.000464,-0.017671,13.328966,-3.134366,-31.010040,,,,,,,
1504196530.011415,-0.009862,0.370632,1.574795,-0.040812,0.065347,-0.043863,-0.009192,-0.362204,-0.932053,-0.009607,0.005362,-0.013931,13.328966,-3.134366,-31.010040,,,,,,,
1504196530.021425,-0.009557,0.370329,1.574319,-0.005036,0.001119,-0.046891,-0.008909,-0.361922,-0.932166,-0.003039,0.005935,-0.008172,13.778597,-2.982343,-31.010040,,,,,,,
1504196530.031435,-0.009848,0.370571,1.573842,0.044624,-0.058965,-0.045632,-0.009179,-0.362148,-0.932076,-0.001228,0.001613,-0.006233,13.778597,-2.982343,-31.010040,,,,,,,
1504196530.041445,-0.010503,0.371365,1.573356,0.093500,-0.084941,-0.046569,-0.009787,-0.362888,-0.931781,-0.001016,0.001316,-0.004330,13.928179,-2.682111,-30.786926,,,,,,,
1504196530.051454,-0.011205,0.372511,1.572847,0.122346,-0.081979,-0.049726,-0.010437,-0.363955,-0.931358,-0.001084,0.005297,0.003959,13.928179,-2.682111,-30.786926,,,,,,,
1504196530.061457,-0.011670,0.373622,1.572320,0.109784,-0.053103,-0.051934,-0.010865,-0.364990,-0.930948,-0.001937,0.006195,0.006464,13.703890,-3.057828,-30.934692,,,,,,,
1504196530.071436,-0.011768,0.374453,1.571757,0.074937,-0.011253,-0.057405,-0.010952,-0.365764,-0.930643,-0.004413,0.003932,0.003779,13.703890,-3.057828,-30.934692,,,,,,,
1504196530.081446,-0.011497,0.374778,1.571149,0.025146,0.028591,-0.065034,-0.010699,-0.366066,-0.930527,-0.007993,0.003914,-0.001190,13.554461,-3.283505,-30.933380,,,,,,,
1504196530.091456,-0.010822,0.374727,1.570338,-0.015085,0.055581,-0.084364,-0.010071,-0.366019,-0.930553,-0.008118,-0.000864,-0.002430,13.554461,-3.283505,-30.933380,,,,,,,
1504196530.101466,-0.009946,0.374480,1.569376,-0.034192,0.061076,-0.095081,-0.009256,-0.365789,-0.930652,-0.006964,-0.003519,0.000537,13.554613,-3.208951,-30.708923,,,,,,,
1504196530.111476,-0.009127,0.374180,1.568378,-0.035360,0.048297,-0.095060,-0.008495,-0.365509,-0.930769,-0.006596,-0.001877,0.005735,13.554613,-3.208951,-30.708923,,,,,,,
1504196530.121485,-0.008548,0.373948,1.567446,-0.027072,0.022645,-0.086461,-0.007957,-0.365294,-0.930858,-0.004799,-0.001024,0.009014,13.704943,-3.432981,-30.856873,,,,,,,
1504196530.131495,-0.008254,0.373897,1.566616,-0.011348,-0.005202,-0.074643,-0.007684,-0.365246,-0.930879,-0.000586,-0.002124,0.009584,13.704943,-3.432981,-30.856873,,,,,,,
1504196530.141505,-0.008137,0.373908,1.565859,-0.000811,-0.019146,-0.070330,-0.007575,-0.365256,-0.930876,-0.000069,0.000754,0.009032,13.779268,-3.207486,-30.933380,,,,,,,
1504196530.151515,-0.008112,0.373917,1.565146,-0.001961,-0.025537,-0.063916,-0.007551,-0.365265,-0.930873,0.001341,0.003448,0.010738,13.779268,-3.207486,-30.933380,,,,,,,
1504196530.161524,-0.008138,0.373853,1.564510,-0.009474,-0.026548,-0.056456,-0.007576,-0.365205,-0.930896,0.000923,0.003526,0.009906,13.704271,-3.207822,-30.933563,,,,,,,
1504196530.171534,-0.008238,0.373731,1.563982,-0.013815,-0.029719,-0.046851,-0.007669,-0.365091,-0.930940,0.000116,0.001612,0.005418,13.704271,-3.207822,-30.933563,,,,,,,
1504196530.181544,-0.008411,0.373583,1.563523,-0.018160,-0.036082,-0.041510,-0.007831,-0.364954,-0.930993,0.001147,0.002054,0.006203,13.554384,-3.208646,-30.858917,,,,,,,
1504196530.191554,-0.008575,0.373382,1.563073,-0.016072,-0.040363,-0.039365,-0.007984,-0.364766,-0.931065,0.003956,0.003759,0.003865,13.554384,-3.208646,-30.858917,,,,,,,
1504196530.201563,-0.008764,0.373129,1.562586,-0.020367,-0.045651,-0.042565,-0.008161,-0.364531,-0.931156,0.005231,0.005339,0.002231,13.553148,-2.758496,-30.937317,,,,,,,
1504196530.211573,-0.008954,0.372830,1.562066,-0.028935,-0.050905,-0.044706,-0.008338,-0.364253,-0.931263,0.007469,0.003276,0.001789,13.553148,-2.758496,-30.937317,,,,,,,
1504196530.221583,-0.009156,0.372445,1.561501,-0.039619,-0.054010,-0.046854,-0.008528,-0.363894,-0.931401,0.008940,0.001132,0.002309,13.704454,-3.058576,-30.559662,,,,,,,
1504196530.231593,-0.009287,0.372035,1.560938,-0.038489,-0.045493,-0.045800,-0.008651,-0.363512,-0.931549,0.009353,0.000825,0.000824,13.704454,-3.058576,-30.559662,,,,,,,
1504196530.241602,-0.009471,0.371700,1.560487,-0.030008,-0.045573,-0.035111,-0.008824,-0.363199,-0.931670,0.006627,0.000193,0.000197,13.553743,-2.908795,-30.786163,,,,,,,
1504196530.251612,-0.009735,0.371540,1.560188,-0.016222,-0.046766,-0.020142,-0.009071,-0.363051,-0.931725,0.006294,-0.001650,0.002160,13.553743,-2.908795,-30.786163,,,,,,,
1504196530.261622,-0.010121,0.371506,1.560069,0.000779,-0.046920,-0.006236,-0.009430,-0.363019,-0.931734,0.002930,-0.000079,-0.001005,13.704119,-3.058133,-30.784668,,,,,,,
1504196530.271632,-0.010459,0.371576,1.560021,0.018872,-0.047077,0.002335,-0.009745,-0.363084,-0.931705,0.005137,0.001222,-0.003475,13.704119,-3.058133,-30.784668,,,,,,,
1504196530.281642,-0.010840,0.371824,1.560020,0.025410,-0.033272,-0.003015,-0.010099,-0.363316,-0.931611,0.005491,0.001453,-0.003569,13.627535,-2.607862,-31.088257,,,,,,,
1504196530.291651,-0.010921,0.372028,1.559845,0.027762,-0.015160,-0.017987,-0.010174,-0.363505,-0.931537,0.003826,0.003581,-0.005399,13.627535,-2.607862,-31.088257,,,,,,,
1504196530.301661,-0.010672,0.372147,1.559400,0.023748,0.000885,-0.043641,-0.009941,-0.363616,-0.931496,0.007073,0.006179,-0.007927,13.402880,-2.609326,-30.863800,,,,,,,
1504196530.311671,-0.010283,0.372276,1.558742,0.025965,0.000887,-0.060716,-0.009579,-0.363737,-0.931453,0.007824,0.005293,-0.008168,13.402880,-2.609326,-30.863800,,,,,,,
1504196530.321681,-0.009914,0.372431,1.557985,0.025919,-0.008695,-0.067104,-0.009234,-0.363881,-0.931400,0.008074,0.003575,-0.009671,13.327196,-2.384503,-30.940674,,,,,,,
1504196530.331690,-0.009783,0.372696,1.557254,0.029975,-0.031111,-0.060653,-0.009111,-0.364128,-0.931304,0.006960,0.000725,-0.004868,13.327196,-2.384503,-30.940674,,,,,,,
1504196530.341700,-0.009985,0.373028,1.556662,0.035043,-0.057803,-0.049924,-0.009299,-0.364437,-0.931182,0.006567,-0.000309,-0.004151,13.403704,-2.759915,-30.562653,,,,,,,
1504196530.351710,-0.010421,0.373365,1.556167,0.039156,-0.071697,-0.041353,-0.009703,-0.364751,-0.931055,0.005110,0.002309,-0.001273,13.403704,-2.759915,-30.562653,,,,,,,
1504196530.361720,-0.010755,0.373657,1.555682,0.033979,-0.052472,-0.042464,-0.010013,-0.365023,-0.930945,0.005283,0.004778,-0.000452,13.328112,-2.834210,-31.087311,,,,,,,
1504196530.371729,-0.010833,0.373868,1.555224,0.031053,-0.017283,-0.041464,-0.010085,-0.365219,-0.930867,0.001616,0.007508,0.000172,13.328112,-2.834210,-31.087311,,,,,,,
1504196530.381739,-0.010494,0.374001,1.554796,0.025023,0.030716,-0.039424,-0.009768,-0.365343,-0.930822,-0.000043,0.008654,0.001424,13.403856,-3.133878,-31.084869,,,,,,,
1504196530.391749,-0.009823,0.374111,1.554452,0.014589,0.064893,-0.032031,-0.009143,-0.365445,-0.930788,-0.002728,0.007016,0.006197,13.403856,-3.133878,-31.084869,,,,,,,
1504196530.401759,-0.009058,0.374124,1.554190,-0.004662,0.065042,-0.022458,-0.008432,-0.365457,-0.930790,-0.000113,0.004389,0.012638,13.553179,-2.908048,-31.161163,,,,,,,
1504196530.411738,-0.008354,0.374095,1.553944,-0.017669,0.042768,-0.017104,-0.007776,-0.365430,-0.930806,0.006769,-0.001055,0.016164,13.553179,-2.908048,-31.161163,,,,,,,
1504196530.421748,-0.007850,0.374164,1.553662,-0.002937,0.014946,-0.020232,-0.007307,-0.365494,-0.930785,0.010710,-0.004440,0.012191,13.478899,-3.058835,-30.935242,,,,,,,
1504196530.431757,-0.007559,0.374476,1.553330,0.039563,-0.009906,-0.024384,-0.007035,-0.365785,-0.930673,0.012299,0.001100,0.005975,13.478899,-3.058835,-30.935242,,,,,,,
1504196530.441767,-0.007593,0.375289,1.552946,0.096955,-0.042337,-0.031700,-0.007064,-0.366542,-0.930375,0.010009,0.007533,0.012559,13.329195,-3.134656,-30.860046,,,,,,,
1504196530.451777,-0.007968,0.376561,1.552500,0.137136,-0.089548,-0.034750,-0.007410,-0.367724,-0.929905,0.013407,0.008593,0.015858,13.329195,-3.134656,-30.860046,,,,,,,
1504196530.461787,-0.009064,0.378064,1.551969,0.154639,-0.174927,-0.044176,-0.008424,-0.369122,-0.929343,0.015550,0.009610,0.015585,13.479128,-3.059140,-30.785217,,,,,,,
1504196530.471797,-0.011016,0.379581,1.551314,0.154966,-0.271888,-0.051477,-0.010232,-0.370531,-0.928764,0.020715,0.009142,0.012046,13.479128,-3.059140,-30.785217,,,,,,,
1504196530.481806,-0.013647,0.381077,1.550610,0.153367,-0.339001,-0.052430,-0.012668,-0.371921,-0.928178,0.025210,0.006549,0.004594,13.479265,-3.208844,-30.934113,,,,,,,
1504196530.491816,-0.016672,0.382532,1.549991,0.148894,-0.359215,-0.043864,-0.015466,-0.373271,-0.927594,0.023889,0.005366,0.001339,13.479265,-3.208844,-30.934113,,,,,,,
1504196530.501826,-0.019641,0.383915,1.549557,0.137418,-0.318639,-0.031148,-0.018210,-0.374553,-0.927027,0.015403,0.004909,0.001688,13.329378,-3.209668,-30.859467,,,,,,,
1504196530.511836,-0.022053,0.385022,1.549356,0.110328,-0.227855,-0.016411,-0.020437,-0.375580,-0.926565,0.004766,0.006516,-0.000193,13.329378,-3.209668,-30.859467,,,,,,,
1504196530.521845,-0.023670,0.385766,1.549381,0.060994,-0.117707,-0.002814,-0.021928,-0.376269,-0.926251,-0.007033,0.003131,0.004498,12.804171,-3.211728,-31.010773,,,,,,,
1504196530.531855,-0.024240,0.385984,1.549495,-0.004212,0.002170,0.000064,-0.022454,-0.376471,-0.926156,-0.015220,-0.003320,0.006112,12.804171,-3.211728,-31.010773,,,,,,,
1504196530.541865,-0.023770,0.385608,1.549528,-0.073829,0.096522,-0.008761,-0.022023,-0.376123,-0.926308,-0.018535,-0.010566,0.006493,12.729158,-3.212064,-31.010956,,,,,,,
1504196530.551875,-0.022677,0.384753,1.549412,-0.132190,0.130043,-0.018526,-0.021017,-0.375330,-0.926653,-0.014871,-0.018835,0.009127,12.729158,-3.212064,-31.010956,,,,,,,
1504196530.561884,-0.021564,0.383600,1.549158,-0.150467,0.106758,-0.027055,-0.019995,-0.374261,-0.927108,-0.009302,-0.019797,0.005797,12.653719,-2.987546,-30.937836,,,,,,,
1504196530.571894,-0.020794,0.382439,1.548801,-0.135885,0.056562,-0.035480,-0.019290,-0.373184,-0.927557,-0.005139,-0.016663,0.000051,12.653719,-2.987546,-30.937836,,,,,,,
1504196530.581904,-0.020533,0.381571,1.548311,-0.090475,-0.008802,-0.045959,-0.019055,-0.372379,-0.927885,-0.000233,-0.009930,-0.000154,13.028933,-3.210416,-31.160217,,,,,,,
1504196530.591914,-0.020807,0.381013,1.547682,-0.044991,-0.066704,-0.059655,-0.019314,-0.371861,-0.928088,0.002208,-0.000362,0.001788,13.028933,-3.210416,-31.160217,,,,,,,
1504196530.601924,-0.021456,0.380848,1.546976,0.003815,-0.103332,-0.063776,-0.019917,-0.371708,-0.928136,0.003987,0.006214,0.000875,12.954165,-3.211057,-31.010406,,,,,,,
1504196530.611933,-0.022277,0.381160,1.546347,0.060288,-0.107002,-0.055132,-0.020676,-0.371997,-0.928003,0.002427,0.011219,0.000895,12.954165,-3.211057,-31.010406,,,,,,,
1504196530.621943,-0.023015,0.381939,1.545852,0.103097,-0.084986,-0.046558,-0.021354,-0.372720,-0.927698,0.000526,0.012307,0.001245,12.879091,-3.136533,-30.936157,,,,,,,
1504196530.631953,-0.023436,0.382864,1.545426,0.110884,-0.043494,-0.044483,-0.021737,-0.373579,-0.927344,-0.001685,0.013929,0.000021,12.879091,-3.136533,-30.936157,,,,,,,
1504196530.641963,-0.023355,0.383570,1.544917,0.080368,0.004718,-0.053161,-0.021656,-0.374234,-0.927082,-0.001827,0.014721,-0.000241,12.878374,-2.986081,-31.162262,,,,,,,
1504196530.651972,-0.022618,0.383791,1.544226,0.022192,0.059557,-0.067235,-0.020971,-0.374439,-0.927014,0.000646,0.009326,-0.005221,12.878374,-2.986081,-31.162262,,,,,,,
1504196530.661982,-0.021279,0.383412,1.543406,-0.040336,0.109097,-0.072768,-0.019733,-0.374086,-0.927184,0.002978,0.003573,-0.012773,12.877657,-2.611386,-31.015076,,,,,,,
1504196530.671992,-0.019599,0.382489,1.542592,-0.099888,0.135160,-0.070782,-0.018182,-0.373231,-0.927560,0.002877,-0.001418,-0.011572,12.877657,-2.611386,-31.015076,,,,,,,
1504196530.682002,-0.017919,0.381308,1.541867,-0.121270,0.136391,-0.060148,-0.016631,-0.372134,-0.928030,0.000136,-0.004910,-0.010233,13.329302,-3.134809,-30.785034,,,,,,,
1504196530.692011,-0.016508,0.380215,1.541286,-0.104502,0.106404,-0.047257,-0.015328,-0.371120,-0.928458,0.001794,-0.004933,-0.009057,13.329302,-3.134809,-30.785034,,,,,,,
1504196530.702021,-0.015588,0.379500,1.540821,-0.060141,0.054834,-0.036382,-0.014478,-0.370456,-0.928737,0.002912,-0.001569,-0.001759,13.103106,-2.835233,-31.087860,,,,,,,
1504196530.712031,-0.015300,0.379213,1.540457,-0.015851,-0.006276,-0.029794,-0.014212,-0.370190,-0.928847,0.004660,0.003063,0.003219,13.103106,-2.835233,-31.087860,,,,,,,
1504196530.722041,-0.015421,0.379199,1.540121,0.011558,-0.044866,-0.025409,-0.014325,-0.370177,-0.928851,0.008725,0.007842,0.006732,13.103365,-2.985074,-31.161713,,,,,,,
1504196530.732050,-0.015619,0.379333,1.539809,0.024344,-0.044972,-0.022185,-0.014508,-0.370301,-0.928798,0.009961,0.007447,0.005214,13.103365,-2.985074,-31.161713,,,,,,,
1504196530.742060,-0.015650,0.379522,1.539521,0.027734,-0.020491,-0.021156,-0.014536,-0.370477,-0.928728,0.008814,0.005929,-0.000471,12.953325,-2.836194,-30.938232,,,,,,,
1504196530.752039,-0.015459,0.379635,1.539308,0.019395,0.008344,-0.014817,-0.014358,-0.370581,-0.928689,0.005736,0.006095,-0.002860,12.953325,-2.836194,-30.938232,,,,,,,
1504196530.762049,-0.015144,0.379572,1.539216,0.001335,0.025531,-0.003138,-0.014065,-0.370523,-0.928717,0.003369,0.005594,-0.004297,12.877916,-2.761243,-31.088959,,,,,,,
1504196530.772059,-0.014615,0.379354,1.539228,-0.018878,0.041669,0.010674,-0.013575,-0.370321,-0.928805,0.004374,-0.002131,-0.006086,12.877916,-2.761243,-31.088959,,,,,,,
1504196530.782069,-0.014116,0.379047,1.539384,-0.032621,0.060957,0.015954,-0.013114,-0.370035,-0.928925,0.003913,-0.002417,-0.005965,12.878298,-2.911237,-31.087830,,,,,,,
1504196530.792079,-0.013338,0.378662,1.539509,-0.043099,0.083424,0.013761,-0.012393,-0.369678,-0.929077,0.002673,-0.003598,-0.001861,12.878298,-2.911237,-31.087830,,,,,,,
1504196530.802088,-0.012414,0.378279,1.539617,-0.044061,0.095157,0.011604,-0.011536,-0.369322,-0.929230,0.001542,-0.004381,-0.000458,12.879091,-3.136533,-30.936157,,,,,,,
1504196530.812098,-0.011476,0.377954,1.539714,-0.031278,0.091856,0.010564,-0.010666,-0.369020,-0.929360,0.001862,-0.003172,-0.001975,12.879091,-3.136533,-30.936157,,,,,,,
1504196530.822108,-0.010725,0.377798,1.539865,-0.012268,0.071447,0.017037,-0.009968,-0.368874,-0.929426,0.001073,-0.002418,-0.001513,13.028368,-2.985410,-31.161896,,,,,,,
1504196530.832118,-0.010299,0.377798,1.540071,0.005574,0.037197,0.021398,-0.009573,-0.368875,-0.929430,0.002386,-0.000083,-0.002928,13.028368,-2.985410,-31.161896,,,,,,,
1504196530.842127,-0.010235,0.377884,1.540265,0.017038,0.001941,0.019345,-0.009512,-0.368955,-0.929399,0.002234,0.002591,-0.002776,13.103716,-2.985532,-30.936737,,,,,,,
1504196530.852137,-0.010439,0.378017,1.540430,0.022174,-0.024738,0.016199,-0.009702,-0.369078,-0.929348,0.003705,0.003081,-0.003224,13.103716,-2.985532,-30.936737,,,,,,,
1504196530.862147,-0.010710,0.378112,1.540507,0.022200,-0.027923,0.005530,-0.009953,-0.369166,-0.929310,0.002247,0.006099,-0.006145,13.178484,-2.984891,-31.086548,,,,,,,
1504196530.872157,-0.010943,0.378137,1.540509,0.015952,-0.015074,-0.005177,-0.010170,-0.369190,-0.929298,-0.002953,0.009006,-0.003151,13.178484,-2.984891,-31.086548,,,,,,,
1504196530.882166,-0.011045,0.378093,1.540415,0.007600,0.002053,-0.014829,-0.010265,-0.369149,-0.929314,-0.006916,0.007821,-0.002052,13.103594,-2.985379,-31.011719,,,,,,,
1504196530.892176,-0.011034,0.377999,1.540322,0.006676,0.020173,-0.014862,-0.010255,-0.369061,-0.929348,-0.011642,0.008984,-0.002124,13.103594,-2.985379,-31.011719,,,,,,,
1504196530.902186,-0.010816,0.377957,1.540226,0.013301,0.045695,-0.019164,-0.010052,-0.369023,-0.929366,-0.014011,0.008686,-0.002656,13.178743,-3.134732,-31.160400,,,,,,,
1504196530.912196,-0.010447,0.378017,1.540139,0.017715,0.064835,-0.018122,-0.009709,-0.369078,-0.929348,-0.017787,0.007399,0.002147,13.178743,-3.134732,-31.160400,,,,,,,
1504196530.922205,-0.009941,0.378133,1.540089,0.015622,0.073368,-0.012802,-0.009239,-0.369186,-0.929310,-0.015740,0.006546,0.006366,13.253893,-3.059857,-30.935791,,,,,,,
1504196530.932215,-0.009430,0.378186,1.540058,0.003847,0.069199,-0.011747,-0.008764,-0.369235,-0.929295,-0.013560,0.005725,0.009754,13.253893,-3.059857,-30.935791,,,,,,,
1504196530.942225,-0.008999,0.378096,1.539975,-0.014360,0.056566,-0.018160,-0.008363,-0.369152,-0.929331,-0.012770,0.003567,0.011744,12.879091,-3.136533,-30.936157,,,,,,,
1504196530.952235,-0.008613,0.377877,1.539761,-0.029375,0.040713,-0.027764,-0.008005,-0.368948,-0.929416,-0.008993,0.000662,0.009570,12.879091,-3.136533,-30.936157,,,,,,,
1504196530.962245,-0.008357,0.377620,1.539460,-0.028479,0.017265,-0.030923,-0.007768,-0.368709,-0.929512,-0.005263,0.001781,0.012581,13.104845,-3.435529,-30.933350,,,,,,,
1504196530.972254,-0.008263,0.377367,1.539178,-0.023240,0.006562,-0.028760,-0.007681,-0.368474,-0.929606,-0.003076,0.005696,0.012752,13.104845,-3.435529,-30.933350,,,,,,,
1504196530.982264,-0.008031,0.377152,1.538900,-0.022113,0.016140,-0.025573,-0.007467,-0.368274,-0.929687,-0.003291,0.005497,0.012832,13.178484,-2.984891,-31.086548,,,,,,,
1504196530.992274,-0.007776,0.376863,1.538662,-0.028457,0.024714,-0.023464,-0.007230,-0.368006,-0.929796,-0.004153,0.006174,0.012040,13.178484,-2.984891,-31.086548,,,,,,,
1504196531.002284,-0.007428,0.376461,1.538411,-0.044331,0.037637,-0.028851,-0.006908,-0.367631,-0.929946,-0.006108,0.005540,0.012084,13.178896,-3.060193,-30.935974,,,,,,,
1504196531.012293,-0.006960,0.375927,1.538111,-0.060202,0.051623,-0.033172,-0.006474,-0.367135,-0.930145,-0.007610,0.003594,0.014389,13.178896,-3.060193,-30.935974,,,,,,,
1504196531.022303,-0.006440,0.375401,1.537859,-0.069681,0.068745,-0.030016,-0.005991,-0.366646,-0.930341,-0.006277,-0.000999,0.012617,13.253710,-2.984845,-30.936371,,,,,,,
1504196531.032313,-0.005574,0.374738,1.537578,-0.065363,0.078294,-0.024688,-0.005187,-0.366029,-0.930589,-0.007081,-0.001617,0.012865,13.253710,-2.984845,-30.936371,,,,,,,
1504196531.042323,-0.004883,0.374227,1.537396,-0.058016,0.067569,-0.017184,-0.004545,-0.365553,-0.930780,-0.005770,-0.000307,0.014733,13.252916,-2.759549,-31.088043,,,,,,,
1504196531.052332,-0.004365,0.373822,1.537297,-0.048719,0.036578,-0.005372,-0.004064,-0.365176,-0.930930,0.001104,-0.001569,0.013434,13.252916,-2.759549,-31.088043,,,,,,,
1504196531.062329,-0.004202,0.373535,1.537238,-0.043775,-0.009288,0.000054,-0.003912,-0.364909,-0.931035,0.006613,-0.006536,0.010594,13.328402,-2.909360,-31.011719,,,,,,,
1504196531.072339,-0.004271,0.373396,1.537067,-0.037688,-0.053017,-0.006264,-0.003977,-0.364780,-0.931085,0.009912,-0.005414,0.000833,13.328402,-2.909360,-31.011719,,,,,,,
1504196531.082318,-0.004897,0.373126,1.536901,-0.021783,-0.073381,-0.019009,-0.004560,-0.364528,-0.931181,0.010495,-0.005666,0.000929,13.179049,-2.985639,-30.711548,,,,,,,
1504196531.092328,-0.005401,0.373162,1.536600,0.004902,-0.074660,-0.023231,-0.005029,-0.364561,-0.931166,0.009790,-0.003069,0.000898,13.179049,-2.985639,-30.711548,,,,,,,
1504196531.102338,-0.005842,0.373424,1.536300,0.027445,-0.058858,-0.025355,-0.005439,-0.364805,-0.931068,0.006492,-0.000444,0.002723,13.328447,-2.834668,-30.862305,,,,,,,
1504196531.112348,-0.006157,0.373754,1.536062,0.032918,-0.037597,-0.018979,-0.005732,-0.365113,-0.930946,0.003062,0.002305,0.005897,13.328447,-2.834668,-30.862305,,,,,,,
1504196531.122357,-0.006227,0.373966,1.535935,0.014989,-0.005491,-0.009460,-0.005796,-0.365310,-0.930868,0.001631,0.002716,0.005117,13.478258,-2.758985,-30.862488,,,,,,,
1504196531.132367,-0.006091,0.373923,1.535925,-0.020054,0.022491,0.002171,-0.005670,-0.365270,-0.930884,-0.001197,-0.002268,0.002479,13.478258,-2.758985,-30.862488,,,,,,,
1504196531.142377,-0.005758,0.373507,1.535973,-0.062598,0.040953,0.005267,-0.005361,-0.364883,-0.931038,-0.000315,-0.006837,0.000466,13.402651,-2.609021,-31.013794,,,,,,,
1504196531.152387,-0.005272,0.372721,1.536057,-0.098783,0.054035,0.008384,-0.004910,-0.364151,-0.931327,-0.001270,-0.009094,-0.001153,13.402651,-2.609021,-31.013794,,,,,,,
1504196531.162395,-0.004710,0.371714,1.536139,-0.111511,0.062666,0.007279,-0.004389,-0.363213,-0.931696,-0.001089,-0.007362,-0.000998,13.478334,-2.833844,-30.936920,,,,,,,
1504196531.172405,-0.004145,0.370744,1.536243,-0.095523,0.062530,0.010509,-0.003863,-0.362309,-0.932050,-0.001645,-0.003948,-0.000216,13.478334,-2.833844,-30.936920,,,,,,,
1504196531.182415,-0.003686,0.370090,1.536388,-0.052998,0.046192,0.014882,-0.003436,-0.361699,-0.932288,-0.000394,-0.000102,0.000602,13.553591,-2.983350,-31.010590,,,,,,,
1504196531.192425,-0.003523,0.369793,1.536597,-0.014857,0.016035,0.020338,-0.003284,-0.361423,-0.932396,-0.000637,0.005343,0.003609,13.553591,-2.983350,-31.010590,,,,,,,
1504196531.202435,-0.003689,0.369745,1.536737,0.001927,-0.025651,0.010834,-0.003440,-0.361378,-0.932413,0.002631,0.004444,0.004114,13.477083,-2.159436,-30.641968,,,,,,,
1504196531.212445,-0.004055,0.369641,1.536700,-0.008822,-0.046855,-0.007294,-0.003781,-0.361281,-0.932449,0.003659,0.003905,0.001740,13.477083,-2.159436,-30.641968,,,,,,,
1504196531.222455,-0.004339,0.369429,1.536426,-0.016122,-0.038248,-0.027602,-0.004046,-0.361083,-0.932525,0.003665,0.002532,-0.005601,13.401903,-2.309018,-31.016052,,,,,,,
1504196531.232465,-0.004279,0.369155,1.536028,-0.025364,0.000201,-0.038360,-0.003991,-0.360828,-0.932624,0.001244,-0.000149,-0.008203,13.401903,-2.309018,-31.016052,,,,,,,
1504196531.242474,-0.003948,0.368803,1.535706,-0.038986,0.036534,-0.029908,-0.003682,-0.360499,-0.932752,-0.004786,-0.001637,-0.003268,12.953218,-2.836057,-31.013214,,,,,,,
1504196531.252484,-0.003424,0.368333,1.535566,-0.053768,0.066473,-0.012908,-0.003194,-0.360060,-0.932923,-0.009287,-0.004228,-0.002120,12.953218,-2.836057,-31.013214,,,,,,,
1504196531.262494,-0.002870,0.367780,1.535621,-0.067657,0.074028,0.003067,-0.002678,-0.359545,-0.933124,-0.010490,-0.007399,-0.004178,13.402422,-2.384473,-30.790466,,,,,,,
1504196531.272504,-0.002462,0.367335,1.535734,-0.075203,0.062368,0.000940,-0.002298,-0.359129,-0.933285,-0.005088,-0.011614,-0.003559,13.402422,-2.384473,-30.790466,,,,,,,
1504196531.282514,-0.001899,0.366684,1.535606,-0.060301,0.047344,-0.016086,-0.001773,-0.358521,-0.933520,-0.005613,-0.012221,-0.003324,13.177507,-2.460340,-30.865479,,,,,,,
1504196531.292523,-0.001550,0.366374,1.535317,-0.031603,0.023681,-0.032005,-0.001447,-0.358232,-0.933631,-0.003573,-0.007613,-0.005761,13.177507,-2.460340,-30.865479,,,,,,,
1504196531.302533,-0.001465,0.366303,1.534938,-0.005207,-0.013828,-0.036163,-0.001367,-0.358166,-0.933657,-0.000601,-0.003391,-0.000456,13.477541,-2.608533,-31.088623,,,,,,,
1504196531.312542,-0.001739,0.366387,1.534555,0.007309,-0.049097,-0.035011,-0.001623,-0.358244,-0.933626,0.000571,-0.002367,-0.000547,13.477541,-2.608533,-31.088623,,,,,,,
1504196531.322552,-0.002278,0.366649,1.534225,0.007168,-0.065084,-0.031781,-0.002126,-0.358489,-0.933531,-0.001322,-0.009079,-0.005754,13.102571,-2.535520,-30.940125,,,,,,,
1504196531.332561,-0.002827,0.366690,1.533867,0.002908,-0.066111,-0.034989,-0.002639,-0.358527,-0.933516,-0.000809,-0.009042,-0.005770,13.102571,-2.535520,-30.940125,,,,,,,
1504196531.342571,-0.003121,0.366698,1.533419,-0.013852,-0.033994,-0.045749,-0.002914,-0.358535,-0.933512,-0.000916,-0.008622,-0.005407,13.102999,-2.610822,-30.789520,,,,,,,
1504196531.352582,-0.003030,0.366515,1.532895,-0.036920,0.010959,-0.054407,-0.002828,-0.358364,-0.933577,-0.004938,-0.008915,-0.001054,13.102999,-2.610822,-30.789520,,,,,,,
1504196531.362592,-0.002381,0.366154,1.532342,-0.055664,0.067591,-0.055606,-0.002223,-0.358027,-0.933709,-0.006444,-0.010534,-0.001533,13.252092,-2.384702,-31.015839,,,,,,,
1504196531.372601,-0.001254,0.365624,1.531829,-0.065935,0.119883,-0.051446,-0.001171,-0.357532,-0.933900,-0.009785,-0.008694,-0.003371,13.252092,-2.384702,-31.015839,,,,,,,
1504196531.382611,0.000125,0.365088,1.531442,-0.065858,0.137982,-0.037601,0.000117,-0.357032,-0.934092,-0.009120,-0.010125,-0.002889,13.327089,-2.384366,-31.015656,,,,,,,
1504196531.392621,0.001412,0.364595,1.531148,-0.060709,0.119814,-0.029020,0.001319,-0.356571,-0.934267,-0.006369,-0.009686,-0.000913,13.327089,-2.384366,-31.015656,,,,,,,
1504196531.402631,0.002367,0.364176,1.530913,-0.048275,0.078145,-0.021453,0.002212,-0.356180,-0.934415,-0.002654,-0.007682,-0.001391,13.252535,-2.385297,-30.715851,,,,,,,
1504196531.412610,0.002956,0.363975,1.530601,-0.028388,0.025775,-0.027731,0.002763,-0.355991,-0.934485,0.004562,-0.009106,-0.001794,13.252535,-2.385297,-30.715851,,,,,,,
1504196531.422620,0.003161,0.363914,1.530143,-0.014867,-0.025471,-0.039360,0.002954,-0.355935,-0.934506,0.010718,-0.007346,0.001675,13.552797,-2.533795,-30.788971,,,,,,,
1504196531.432629,0.003048,0.363946,1.529587,-0.006625,-0.064958,-0.043547,0.002849,-0.355965,-0.934495,0.015721,-0.005745,0.003800,13.552797,-2.533795,-30.788971,,,,,,,
1504196531.442639,0.002743,0.364033,1.528996,0.002878,-0.078884,-0.045642,0.002563,-0.356046,-0.934465,0.016098,-0.003711,0.002458,13.327730,-2.459958,-30.715118,,,,,,,
1504196531.452649,0.002441,0.364219,1.528471,0.010457,-0.061899,-0.040323,0.002281,-0.356219,-0.934400,0.011818,-0.003812,0.004788,13.327730,-2.459958,-30.715118,,,,,,,
1504196531.462659,0.002281,0.364390,1.528132,0.012762,-0.029967,-0.023297,0.002131,-0.356380,-0.934339,0.006002,-0.001515,0.005567,13.552309,-2.383649,-30.865112,,,,,,,
1504196531.472669,0.002338,0.364495,1.528050,0.009779,0.010529,-0.002026,0.002184,-0.356477,-0.934301,0.000410,0.001482,0.002142,13.552309,-2.383649,-30.865112,,,,,,,
1504196531.482677,0.002521,0.364490,1.528216,-0.002924,0.035121,0.017122,0.002355,-0.356473,-0.934303,-0.003682,0.000836,0.000068,13.477541,-2.384290,-30.715302,,,,,,,
1504196531.492687,0.002774,0.364377,1.528455,-0.013574,0.039467,0.020299,0.002592,-0.356367,-0.934342,-0.003447,-0.001329,-0.002135,13.477541,-2.384290,-30.715302,,,,,,,
1504196531.502697,0.003037,0.364206,1.528625,-0.018939,0.030995,0.012833,0.002838,-0.356208,-0.934403,-0.000732,-0.002938,-0.005081,13.627199,-2.383161,-30.939941,,,,,,,
1504196531.512707,0.003275,0.364143,1.528633,-0.005119,0.015977,-0.000993,0.003060,-0.356148,-0.934424,0.002174,-0.003379,-0.003686,13.627199,-2.383161,-30.939941,,,,,,,
1504196531.522717,0.003367,0.364300,1.528544,0.018222,-0.004454,-0.007322,0.003146,-0.356296,-0.934368,0.003156,-0.001752,0.000591,13.552355,-2.533200,-31.088989,,,,,,,
1504196531.532727,0.003220,0.364722,1.528470,0.044677,-0.029184,-0.002963,0.003008,-0.356690,-0.934218,0.003873,0.000519,0.004775,13.552355,-2.533200,-31.088989,,,,,,,
1504196531.542737,0.002827,0.365300,1.528484,0.060464,-0.049571,0.007774,0.002641,-0.357230,-0.934013,0.004470,0.003409,0.006263,13.327196,-2.384503,-30.940674,,,,,,,
1504196531.552747,0.002226,0.365922,1.528593,0.059265,-0.063418,0.012066,0.002078,-0.357811,-0.933792,0.003400,0.002616,0.006225,13.327196,-2.384503,-30.940674,,,,,,,
1504196531.562756,0.001653,0.366436,1.528665,0.045505,-0.053707,0.005620,0.001543,-0.358290,-0.933609,0.001265,0.000548,0.004364,13.701891,-2.307675,-31.015289,,,,,,,
1504196531.572766,0.001286,0.366831,1.528672,0.030812,-0.028004,-0.001922,0.001201,-0.358659,-0.933468,-0.000529,-0.001769,0.002483,13.701891,-2.307675,-31.015289,,,,,,,
1504196531.582776,0.001172,0.367133,1.528630,0.011822,-0.003336,-0.005201,0.001094,-0.358941,-0.933359,-0.001903,-0.006934,0.003580,13.552950,-2.459241,-30.564545,,,,,,,
1504196531.592786,0.001192,0.367310,1.528620,0.002312,0.010590,-0.000972,0.001113,-0.359106,-0.933296,-0.003646,-0.007440,0.001991,13.552950,-2.459241,-30.564545,,,,,,,
1504196531.602796,0.001285,0.367421,1.528668,-0.001929,0.017013,0.004347,0.001199,-0.359210,-0.933256,-0.002908,-0.007795,0.000837,13.552202,-2.383496,-30.940125,,,,,,,
1504196531.612805,0.001357,0.367499,1.528785,0.004432,0.015887,0.010765,0.001266,-0.359282,-0.933228,-0.002960,-0.003495,0.000596,13.552202,-2.383496,-30.940125,,,,,,,
1504196531.622815,0.001487,0.367588,1.528896,0.017256,0.017914,0.009716,0.001388,-0.359366,-0.933196,-0.000381,0.004004,0.000853,13.326632,-2.159513,-30.942383,,,,,,,
1504196531.632825,0.001722,0.367752,1.528926,0.020553,0.025354,0.002237,0.001607,-0.359519,-0.933136,0.000621,0.003913,0.002869,13.326632,-2.159513,-30.942383,,,,,,,
1504196531.642835,0.002088,0.367792,1.528844,0.009934,0.026517,-0.006323,0.001948,-0.359556,-0.933121,0.003469,0.007719,0.005875,13.402422,-2.384473,-30.790466,,,,,,,
1504196531.652843,0.002532,0.367704,1.528682,-0.005967,0.034117,-0.014904,0.002363,-0.359474,-0.933152,0.003451,0.004905,0.002244,13.402422,-2.384473,-30.790466,,,,,,,
1504196531.662853,0.003034,0.367568,1.528476,-0.013368,0.040575,-0.018131,0.002831,-0.359347,-0.933200,0.002280,-0.000516,-0.002942,13.402117,-2.309323,-30.866058,,,,,,,
1504196531.672863,0.003567,0.367434,1.528226,-0.008036,0.038404,-0.021320,0.003329,-0.359222,-0.933246,0.002882,0.001724,-0.000256,13.402117,-2.309323,-30.866058,,,,,,,
1504196531.682873,0.004101,0.367436,1.527956,0.002627,0.036188,-0.023433,0.003827,-0.359223,-0.933244,0.003207,0.000901,0.003617,13.478029,-2.534436,-30.639160,,,,,,,
1504196531.692883,0.004533,0.367577,1.527655,0.010026,0.023299,-0.026567,0.004230,-0.359356,-0.933191,0.001904,-0.001530,0.005197,13.478029,-2.534436,-30.639160,,,,,,,
1504196531.702893,0.004735,0.367768,1.527345,0.013004,-0.003367,-0.024380,0.004419,-0.359533,-0.933122,0.003623,-0.001581,0.007112,13.702196,-2.382825,-30.939758,,,,,,,
1504196531.712903,0.004706,0.367951,1.527116,0.011742,-0.022545,-0.015810,0.004391,-0.359704,-0.933056,0.004551,-0.001822,0.003872,13.702196,-2.382825,-30.939758,,,,,,,
1504196531.722913,0.004431,0.368159,1.526979,0.011575,-0.039599,-0.009376,0.004134,-0.359899,-0.932982,0.003129,-0.005107,0.002410,13.627382,-2.458158,-30.939392,,,,,,,
1504196531.732922,0.004007,0.368409,1.526918,0.018980,-0.044992,-0.005084,0.003738,-0.360131,-0.932894,0.001343,-0.004401,0.002108,13.627382,-2.458158,-30.939392,,,,,,,
1504196531.742902,0.003577,0.368724,1.526915,0.027504,-0.041874,0.002397,0.003336,-0.360426,-0.932782,0.000250,-0.001788,0.003705,13.477205,-2.383832,-30.940308,,,,,,,
1504196531.752911,0.003216,0.369094,1.526992,0.032896,-0.030204,0.009858,0.002999,-0.360770,-0.932650,0.001060,-0.000344,0.005572,13.477205,-2.383832,-30.940308,,,,,,,
1504196531.762921,0.003047,0.369465,1.527162,0.032014,-0.002499,0.017279,0.002841,-0.361117,-0.932516,-0.000339,0.000064,0.004950,13.327501,-2.459668,-30.865112,,,,,,,
1504196531.772931,0.003179,0.369751,1.527390,0.023770,0.035927,0.020400,0.002964,-0.361383,-0.932413,-0.003284,0.001215,0.004907,13.327501,-2.459668,-30.865112,,,,,,,
1504196531.782941,0.003623,0.369917,1.527645,0.006982,0.071229,0.020309,0.003378,-0.361538,-0.932351,-0.006185,-0.000095,0.005456,13.702654,-2.607678,-31.013062,,,,,,,
1504196531.792951,0.004281,0.369915,1.527904,-0.011048,0.085228,0.021321,0.003991,-0.361536,-0.932350,-0.006021,-0.002813,0.003318,13.702654,-2.607678,-31.013062,,,,,,,
1504196531.802959,0.004931,0.369778,1.528167,-0.021773,0.078921,0.022381,0.004598,-0.361409,-0.932396,-0.004812,-0.003963,0.000649,13.327608,-2.459805,-30.790100,,,,,,,
1504196531.812969,0.005464,0.369564,1.528425,-0.023037,0.055486,0.024555,0.005095,-0.361209,-0.932471,-0.000425,-0.002347,-0.002130,13.327608,-2.459805,-30.790100,,,,,,,
1504196531.822979,0.005918,0.369439,1.528622,-0.012603,0.026630,0.025691,0.005518,-0.361093,-0.932514,0.007879,-0.000861,0.001315,13.327684,-2.534665,-30.864532,,,,,,,
1504196531.832989,0.005798,0.369371,1.528922,-0.005433,-0.008597,0.028967,0.005407,-0.361029,-0.932539,0.007990,-0.000925,0.001341,13.327684,-2.534665,-30.864532,,,,,,,
1504196531.842999,0.005622,0.369444,1.529160,0.005061,-0.029995,0.030090,0.005243,-0.361097,-0.932514,0.010367,-0.001177,0.004367,13.552355,-2.308942,-30.715668,,,,,,,
1504196531.853009,0.005200,0.369626,1.529458,0.015525,-0.052462,0.035484,0.004849,-0.361266,-0.932450,0.010944,-0.000123,0.007508,13.552355,-2.308942,-30.715668,,,,,,,
1504196531.863019,0.004613,0.369940,1.529876,0.031441,-0.056865,0.046192,0.004301,-0.361560,-0.932339,0.007800,0.000949,0.008145,13.327272,-2.459363,-31.015106,,,,,,,
1504196531.873029,0.004022,0.370400,1.530410,0.050699,-0.044245,0.055810,0.003749,-0.361988,-0.932175,0.000950,0.004185,0.007676,13.327272,-2.459363,-31.015106,,,,,,,
1504196531.883038,0.003458,0.370990,1.531081,0.059331,-0.026211,0.065399,0.003223,-0.362538,-0.931963,0.001477,0.004735,0.007464,13.402086,-2.384030,-31.015472,,,,,,,
1504196531.893048,0.003031,0.371455,1.531809,0.043445,-0.010098,0.067478,0.002824,-0.362972,-0.931796,-0.001146,0.005595,0.009066,13.402086,-2.384030,-31.015472,,,,,,,
1504196531.903058,0.002739,0.371677,1.532516,0.016927,0.006109,0.062067,0.002552,-0.363178,-0.931716,-0.003376,0.004276,0.006576,13.553438,-2.833646,-30.861725,,,,,,,
1504196531.913068,0.002553,0.371646,1.533141,-0.002206,0.010536,0.054555,0.002379,-0.363149,-0.931728,-0.003889,0.004446,0.002895,13.553438,-2.833646,-30.861725,,,,,,,
1504196531.923077,0.002371,0.371467,1.533731,-0.022466,0.010704,0.052385,0.002209,-0.362983,-0.931793,-0.003857,0.002235,0.004898,13.552767,-2.608502,-30.938446,,,,,,,
1504196531.933087,0.002162,0.371253,1.534299,-0.031057,0.002252,0.050250,0.002015,-0.362783,-0.931871,-0.003083,-0.000803,0.012056,13.552767,-2.608502,-30.938446,,,,,,,
1504196531.943097,0.001927,0.371073,1.534841,-0.034248,0.001215,0.047045,0.001795,-0.362615,-0.931937,-0.002665,-0.005457,0.013251,13.478106,-2.609281,-30.713623,,,,,,,
1504196531.953107,0.001722,0.370928,1.535344,-0.031011,0.003322,0.043845,0.001605,-0.362480,-0.931990,-0.002933,-0.006233,0.012526,13.478106,-2.609281,-30.713623,,,,,,,
1504196531.963117,0.001485,0.370784,1.535812,-0.032089,-0.000928,0.039581,0.001384,-0.362346,-0.932043,-0.004436,-0.003758,0.017263,13.553331,-2.609250,-30.563416,,,,,,,
1504196531.973125,0.001258,0.370577,1.536219,-0.030993,-0.000932,0.034246,0.001172,-0.362153,-0.932118,-0.003904,-0.001464,0.015004,13.553331,-2.609250,-30.563416,,,,,,,
1504196531.983135,0.001133,0.370324,1.536574,-0.028735,0.011840,0.029959,0.001056,-0.361917,-0.932210,-0.004779,-0.001013,0.007085,13.553148,-2.758496,-30.937317,,,,,,,
1504196531.993145,0.001160,0.370074,1.536934,-0.023248,0.030974,0.029935,0.001081,-0.361684,-0.932300,-0.006666,0.001043,0.004062,13.553148,-2.758496,-30.937317,,,,,,,
1504196532.003155,0.001260,0.369797,1.537326,-0.026377,0.040587,0.030981,0.001175,-0.361426,-0.932400,-0.009094,0.002051,0.003018,13.552645,-2.608350,-31.013428,,,,,,,
1504196532.013165,0.001418,0.369472,1.537674,-0.033782,0.043851,0.023492,0.001323,-0.361123,-0.932517,-0.010280,0.000802,0.002524,13.552645,-2.608350,-31.013428,,,,,,,
1504196532.023175,0.001563,0.369091,1.537919,-0.041276,0.035395,0.014955,0.001458,-0.360768,-0.932655,-0.009484,-0.000926,0.001212,13.327761,-2.385251,-30.565643,,,,,,,
1504196532.033185,0.001640,0.368720,1.538072,-0.041390,0.018349,0.010716,0.001529,-0.360422,-0.932788,-0.005741,-0.002447,0.001682,13.327761,-2.385251,-30.565643,,,,,,,
1504196532.043195,0.001556,0.368345,1.538176,-0.037267,-0.002992,0.005424,0.001452,-0.360072,-0.932923,-0.004290,-0.000111,0.002992,13.628176,-2.683469,-30.787659,,,,,,,
1504196532.053204,0.001312,0.368009,1.538220,-0.033055,-0.014742,-0.002019,0.001224,-0.359758,-0.933045,-0.006274,0.000918,0.005005,13.628176,-2.683469,-30.787659,,,,,,,
1504196532.063189,0.001104,0.367739,1.538228,-0.023414,-0.010559,-0.003077,0.001030,-0.359506,-0.933142,-0.005074,0.000833,0.001456,13.702761,-2.607831,-30.938080,,,,,,,
1504196532.073168,0.000975,0.367563,1.538241,-0.008355,0.004235,-0.004143,0.000910,-0.359342,-0.933205,-0.007807,0.002729,-0.002311,13.702761,-2.607831,-30.938080,,,,,,,
1504196532.083178,0.000912,0.367505,1.538320,0.003481,0.020113,0.001188,0.000852,-0.359288,-0.933226,-0.012845,0.004109,-0.000932,13.552645,-2.608350,-31.013428,,,,,,,
1504196532.093188,0.000942,0.367486,1.538442,0.004590,0.027557,0.004380,0.000880,-0.359271,-0.933233,-0.012537,0.003085,-0.004313,13.552645,-2.608350,-31.013428,,,,,,,
1504196532.103198,0.000926,0.367435,1.538566,0.002415,0.021181,0.002254,0.000864,-0.359223,-0.933251,-0.012750,0.002869,-0.004813,13.552126,-2.308652,-30.865662,,,,,,,
1504196532.113208,0.000924,0.367373,1.538657,0.001338,0.020122,0.002255,0.000862,-0.359165,-0.933274,-0.010185,0.003254,-0.003830,13.552126,-2.308652,-30.865662,,,,,,,
1504196532.123217,0.000787,0.367420,1.538756,0.007749,0.017940,-0.003066,0.000734,-0.359209,-0.933257,-0.009768,-0.001493,0.001403,13.477388,-2.458844,-30.939758,,,,,,,
1504196532.133227,0.000976,0.367487,1.538672,0.005613,0.013702,-0.009466,0.000910,-0.359272,-0.933233,-0.009944,-0.001431,0.001378,13.477388,-2.458844,-30.939758,,,,,,,
1504196532.143237,0.000874,0.367551,1.538608,-0.000835,0.005232,-0.013731,0.000815,-0.359331,-0.933210,-0.011710,-0.001280,0.004728,13.552538,-2.383954,-30.715118,,,,,,,
1504196532.153247,0.000700,0.367582,1.538543,-0.007294,-0.002177,-0.013728,0.000653,-0.359360,-0.933199,-0.011548,-0.003433,0.002794,13.552538,-2.383954,-30.715118,,,,,,,
1504196532.163256,0.000522,0.367618,1.538433,-0.011550,-0.004270,-0.019068,0.000487,-0.359393,-0.933186,-0.011550,-0.007153,0.003468,13.627581,-2.533170,-30.938812,,,,,,,
1504196532.173266,0.000366,0.367607,1.538282,-0.013641,-0.001055,-0.022278,0.000341,-0.359384,-0.933190,-0.012457,-0.005744,0.004860,13.627581,-2.533170,-30.938812,,,,,,,
1504196532.183276,0.000298,0.367574,1.538087,-0.012483,0.007462,-0.026560,0.000278,-0.359352,-0.933202,-0.011966,-0.003898,0.004918,13.327883,-2.609662,-30.863983,,,,,,,
1504196532.193286,0.000295,0.367630,1.537922,-0.002833,0.015900,-0.022287,0.000275,-0.359405,-0.933182,-0.012986,-0.004929,0.005249,13.327883,-2.609662,-30.863983,,,,,,,
1504196532.203295,0.000286,0.367750,1.537781,0.004592,0.011572,-0.020131,0.000267,-0.359517,-0.933139,-0.012383,-0.003261,0.005007,13.552950,-2.683499,-30.937866,,,,,,,
1504196532.213305,0.000249,0.367838,1.537604,0.001385,0.007339,-0.025465,0.000232,-0.359599,-0.933107,-0.012012,-0.002340,0.004030,13.552950,-2.683499,-30.937866,,,,,,,
1504196532.223315,0.000314,0.367822,1.537280,-0.002765,0.012714,-0.040424,0.000293,-0.359584,-0.933113,-0.010700,-0.000981,-0.001290,13.553255,-2.758649,-30.862305,,,,,,,
1504196532.233325,0.000565,0.367733,1.536816,-0.007945,0.025553,-0.051129,0.000527,-0.359501,-0.933144,-0.008767,0.000096,-0.004493,13.553255,-2.758649,-30.862305,,,,,,,
1504196532.243334,0.000915,0.367648,1.536303,-0.006813,0.033002,-0.052207,0.000854,-0.359422,-0.933175,-0.009429,-0.000426,-0.002738,13.553209,-2.609097,-30.638428,,,,,,,
1504196532.253344,0.001269,0.367560,1.535814,-0.007877,0.034073,-0.051142,0.001184,-0.359339,-0.933206,-0.010324,-0.000203,-0.002570,13.553209,-2.609097,-30.638428,,,,,,,
1504196532.263354,0.001591,0.367534,1.535352,-0.003702,0.024444,-0.047915,0.001485,-0.359315,-0.933215,-0.008321,-0.001952,-0.001416,13.552797,-2.533795,-30.788971,,,,,,,
1504196532.273364,0.001841,0.367583,1.534903,0.008997,0.014742,-0.042538,0.001718,-0.359361,-0.933197,-0.005670,-0.000487,-0.001877,13.552797,-2.533795,-30.788971,,,,,,,
1504196532.283374,0.002000,0.367827,1.534523,0.028092,0.004987,-0.036083,0.001866,-0.359589,-0.933109,-0.003972,-0.000458,-0.001766,13.702730,-2.458280,-30.714172,,,,,,,
1504196532.293383,0.002073,0.368239,1.534152,0.039762,-0.004698,-0.038180,0.001934,-0.359973,-0.932961,-0.002651,0.000140,0.004189,13.702730,-2.458280,-30.714172,,,,,,,
1504196532.303393,0.002117,0.368718,1.533655,0.036544,-0.014250,-0.049910,0.001975,-0.360420,-0.932788,-0.000861,-0.002144,0.007465,13.552874,-2.608655,-30.863434,,,,,,,
1504196532.313403,0.002204,0.369101,1.532965,0.020572,-0.020495,-0.065938,0.002055,-0.360777,-0.932650,0.001592,-0.004366,0.007952,13.552874,-2.608655,-30.863434,,,,,,,
1504196532.323413,0.002458,0.369523,1.532112,-0.003948,-0.023479,-0.073449,0.002292,-0.361171,-0.932497,0.005978,-0.009755,0.007891,13.553331,-2.609250,-30.563416,,,,,,,
1504196532.333422,0.002514,0.369370,1.531353,-0.017804,-0.019107,-0.069211,0.002345,-0.361028,-0.932552,0.005925,-0.009898,0.007946,13.553331,-2.609250,-30.563416,,,,,,,
1504196532.343432,0.002689,0.369399,1.530694,-0.014562,-0.006360,-0.056420,0.002508,-0.361055,-0.932541,0.001841,-0.010130,0.005951,13.628252,-2.758313,-30.862122,,,,,,,
1504196532.353442,0.002861,0.369536,1.530202,0.000376,0.002028,-0.042533,0.002668,-0.361183,-0.932491,-0.000852,-0.008065,0.007412,13.628252,-2.758313,-30.862122,,,,,,,
1504196532.363451,0.003008,0.369767,1.529785,0.013186,0.004051,-0.040379,0.002804,-0.361398,-0.932407,-0.002652,-0.004325,0.009510,13.927874,-2.606961,-30.862488,,,,,,,
1504196532.373461,0.003080,0.370008,1.529360,0.020553,-0.008798,-0.040344,0.002872,-0.361623,-0.932320,-0.002338,-0.000499,0.008263,13.927874,-2.606961,-30.862488,,,,,,,
1504196532.383471,0.003134,0.370264,1.528925,0.024756,-0.016292,-0.039256,0.002921,-0.361862,-0.932227,0.001962,0.001327,0.005103,13.477694,-2.309735,-30.490845,,,,,,,
1504196532.393481,0.003086,0.370473,1.528432,0.016160,-0.027936,-0.045655,0.002877,-0.362057,-0.932152,0.002097,0.000561,0.004417,13.477694,-2.309735,-30.490845,,,,,,,
1504196532.403460,0.002989,0.370609,1.527881,0.009734,-0.034270,-0.050992,0.002786,-0.362183,-0.932103,0.002280,0.001023,0.006138,13.553102,-2.608945,-30.713440,,,,,,,
1504196532.413470,0.002953,0.370698,1.527295,0.014041,-0.030041,-0.052060,0.002752,-0.362266,-0.932070,0.004008,0.002602,0.002719,13.553102,-2.608945,-30.713440,,,,,,,
1504196532.423480,0.003003,0.370877,1.526748,0.024804,-0.016280,-0.048864,0.002799,-0.362433,-0.932006,0.003243,0.003943,0.003920,13.479052,-2.760037,-30.337463,,,,,,,
1504196532.433490,0.003084,0.371148,1.526261,0.034415,-0.011037,-0.042452,0.002874,-0.362686,-0.931907,0.001825,0.006622,0.009010,13.479052,-2.760037,-30.337463,,,,,,,
1504196532.443499,0.003181,0.371443,1.525831,0.030146,-0.007810,-0.037128,0.002964,-0.362961,-0.931800,0.001736,0.007034,0.012061,13.777910,-2.532941,-30.713440,,,,,,,
1504196532.453509,0.003317,0.371665,1.525445,0.016296,-0.003437,-0.033958,0.003091,-0.363167,-0.931719,0.002128,0.003410,0.010836,13.777910,-2.532941,-30.713440,,,,,,,
1504196532.463519,0.003493,0.371769,1.525046,-0.004011,-0.008595,-0.035052,0.003254,-0.363264,-0.931681,0.005794,-0.000887,0.012277,13.403109,-2.609616,-30.713806,,,,,,,
1504196532.473529,0.003696,0.371718,1.524568,-0.023180,-0.008429,-0.041491,0.003444,-0.363217,-0.931698,0.007298,-0.003986,0.013257,13.403109,-2.609616,-30.713806,,,,,,,
1504196532.483538,0.004021,0.371544,1.524017,-0.033743,0.001256,-0.046864,0.003747,-0.363055,-0.931760,0.008735,-0.004621,0.011152,13.478106,-2.609281,-30.713623,,,,,,,
1504196532.493548,0.004480,0.371304,1.523458,-0.041103,0.015171,-0.045835,0.004175,-0.362831,-0.931846,0.008109,-0.005318,0.012427,13.478106,-2.609281,-30.713623,,,,,,,
1504196532.503558,0.005056,0.371058,1.522967,-0.036726,0.033244,-0.038388,0.004712,-0.362602,-0.931932,0.006503,-0.004357,0.012071,13.402727,-2.459622,-30.714935,,,,,,,
1504196532.513568,0.005644,0.370834,1.522646,-0.031379,0.043841,-0.023455,0.005261,-0.362393,-0.932010,0.003193,-0.002994,0.008655,13.402727,-2.459622,-30.714935,,,,,,,
1504196532.523576,0.006108,0.370621,1.522474,-0.033596,0.038523,-0.014910,0.005694,-0.362194,-0.932085,-0.000139,-0.003224,0.011355,13.627916,-2.533612,-30.713806,,,,,,,
1504196532.533587,0.006459,0.370416,1.522314,-0.031561,0.024655,-0.017017,0.006021,-0.362004,-0.932157,-0.000894,-0.003994,0.011045,13.627916,-2.533612,-30.713806,,,,,,,
1504196532.543597,0.006728,0.370188,1.522007,-0.027342,0.009717,-0.030860,0.006272,-0.361791,-0.932238,0.001540,-0.002162,0.006182,13.852755,-2.607160,-30.937683,,,,,,,
1504196532.553607,0.006928,0.370006,1.521581,-0.025284,-0.005209,-0.039370,0.006459,-0.361621,-0.932303,0.003947,-0.002758,0.008047,13.852755,-2.607160,-30.937683,,,,,,,
1504196532.563616,0.007061,0.369902,1.521087,-0.014638,-0.011683,-0.044677,0.006583,-0.361524,-0.932340,0.003930,-0.001696,0.008481,13.702532,-2.383267,-30.714752,,,,,,,
1504196532.573626,0.007238,0.369888,1.520612,-0.010345,-0.005330,-0.039345,0.006748,-0.361511,-0.932343,0.001934,-0.001053,0.006837,13.702532,-2.383267,-30.714752,,,,,,,
1504196532.583636,0.007348,0.369766,1.520277,-0.014614,0.001088,-0.028689,0.006852,-0.361397,-0.932387,0.001831,-0.001167,0.006880,13.702425,-2.383130,-30.789734,,,,,,,
1504196532.593646,0.007516,0.369613,1.520008,-0.026319,0.007574,-0.024451,0.007008,-0.361255,-0.932441,0.000148,-0.002545,0.006843,13.702425,-2.383130,-30.789734,,,,,,,
1504196532.603656,0.007704,0.369350,1.519725,-0.040179,0.006626,-0.027676,0.007184,-0.361010,-0.932534,0.000674,-0.005049,0.005471,13.401751,-2.159329,-30.867188,,,,,,,
1504196532.613665,0.007879,0.368976,1.519372,-0.051914,0.002467,-0.034094,0.007348,-0.360661,-0.932668,0.000235,-0.005993,0.006978,13.401751,-2.159329,-30.867188,,,,,,,
1504196532.623675,0.007972,0.368621,1.518962,-0.049898,-0.014595,-0.037263,0.007437,-0.360329,-0.932795,0.002909,-0.007056,0.009150,13.627153,-2.233609,-30.716064,,,,,,,
1504196532.633685,0.007907,0.368335,1.518536,-0.038266,-0.028542,-0.038286,0.007376,-0.360063,-0.932899,0.002847,-0.006179,0.007148,13.627153,-2.233609,-30.716064,,,,,,,
1504196532.643695,0.007652,0.368124,1.518184,-0.028819,-0.043546,-0.030771,0.007140,-0.359866,-0.932977,0.001253,-0.003827,0.007989,13.626635,-2.158154,-30.941620,,,,,,,
1504196532.653704,0.007344,0.367984,1.517925,-0.019239,-0.040438,-0.021154,0.006853,-0.359735,-0.933029,0.001112,-0.002402,0.005524,13.626635,-2.158154,-30.941620,,,,,,,
1504196532.663714,0.007114,0.367858,1.517756,-0.016983,-0.021282,-0.014779,0.006638,-0.359617,-0.933076,-0.000702,-0.002230,0.002061,13.551638,-2.158505,-30.941803,,,,,,,
1504196532.673724,0.007047,0.367680,1.517648,-0.026438,-0.000962,-0.011629,0.006576,-0.359452,-0.933140,-0.003005,-0.002655,0.002812,13.551638,-2.158505,-30.941803,,,,,,,
1504196532.683734,0.007136,0.367360,1.517571,-0.043386,0.016223,-0.008486,0.006660,-0.359153,-0.933255,-0.004447,-0.004113,0.002072,13.927202,-2.381818,-30.939209,,,,,,,
1504196532.693743,0.007337,0.366909,1.517528,-0.050793,0.025871,-0.005313,0.006849,-0.358732,-0.933416,-0.003461,-0.004641,-0.002253,13.927202,-2.381818,-30.939209,,,,,,,
1504196532.703753,0.007580,0.366461,1.517473,-0.047612,0.020473,-0.006333,0.007077,-0.358314,-0.933574,-0.000714,-0.005441,-0.004582,13.852541,-2.382596,-30.714386,,,,,,,
1504196532.713763,0.007737,0.366113,1.517391,-0.040256,0.005496,-0.007361,0.007224,-0.357989,-0.933698,0.001718,-0.005933,-0.000964,13.852541,-2.382596,-30.714386,,,,,,,
1504196532.723773,0.007794,0.365817,1.517246,-0.036080,-0.009450,-0.012665,0.007278,-0.357713,-0.933803,0.004563,-0.004333,0.000484,13.552721,-2.458951,-30.714569,,,,,,,
1504196532.733752,0.007752,0.365529,1.517057,-0.033998,-0.017988,-0.015849,0.007240,-0.357443,-0.933907,0.004235,-0.004022,-0.000908,13.552721,-2.458951,-30.714569,,,,,,,
1504196532.743762,0.007732,0.365261,1.516883,-0.033951,-0.011595,-0.014793,0.007222,-0.357193,-0.934003,0.003886,-0.005387,-0.002933,13.927080,-2.157407,-30.640869,,,,,,,
1504196532.753771,0.007714,0.364976,1.516733,-0.038188,-0.007299,-0.013741,0.007206,-0.356927,-0.934105,0.000850,-0.006706,-0.002999,13.927080,-2.157407,-30.640869,,,,,,,
1504196532.763781,0.007680,0.364678,1.516600,-0.036028,-0.004120,-0.013743,0.007175,-0.356648,-0.934211,-0.002551,-0.006206,-0.004784,13.628222,-2.608762,-30.638245,,,,,,,
1504196532.773791,0.007715,0.364416,1.516491,-0.025346,0.000050,-0.009462,0.007209,-0.356404,-0.934304,-0.000235,-0.005061,-0.007453,13.628222,-2.608762,-30.638245,,,,,,,
1504196532.783801,0.007661,0.364359,1.516443,0.000203,-0.004428,-0.005140,0.007158,-0.356350,-0.934325,-0.002718,-0.003086,-0.005387,13.702425,-2.383130,-30.789734,,,,,,,
1504196532.793811,0.007503,0.364589,1.516425,0.031046,-0.015341,-0.002932,0.007010,-0.356565,-0.934244,-0.002249,-0.001040,-0.002539,13.702425,-2.383130,-30.789734,,,,,,,
1504196532.803820,0.007182,0.365045,1.516439,0.050109,-0.030421,0.001398,0.006709,-0.356992,-0.934084,-0.002833,0.000256,-0.000243,13.926638,-2.156812,-30.940887,,,,,,,
1504196532.813830,0.006650,0.365600,1.516474,0.054184,-0.053900,0.002514,0.006210,-0.357510,-0.933889,-0.001328,0.001186,0.003515,13.926638,-2.156812,-30.940887,,,,,,,
1504196532.823840,0.006047,0.366378,1.516373,0.048846,-0.065559,-0.014553,0.005645,-0.358236,-0.933614,-0.000488,-0.006815,0.010915,13.701601,-2.008267,-30.717560,,,,,,,
1504196532.833850,0.005716,0.366808,1.515974,0.042803,-0.039903,-0.045564,0.005335,-0.358638,-0.933461,-0.000178,-0.006413,0.010763,13.701601,-2.008267,-30.717560,,,,,,,
1504196532.843858,0.005798,0.367535,1.515202,0.044356,-0.003646,-0.084051,0.005411,-0.359316,-0.933200,-0.003747,-0.010389,0.017597,13.402544,-2.384625,-30.715485,,,,,,,
1504196532.853868,0.006159,0.368326,1.514098,0.046808,0.015546,-0.116102,0.005745,-0.360055,-0.932914,-0.010094,-0.010734,0.023856,13.402544,-2.384625,-30.715485,,,,,,,
1504196532.863878,0.006558,0.369134,1.512767,0.052201,0.010190,-0.135295,0.006116,-0.360808,-0.932620,-0.014829,-0.008455,0.024554,13.477724,-2.459287,-30.714752,,,,,,,
1504196532.873888,0.006492,0.370160,1.511475,0.055231,-0.013282,-0.137380,0.006052,-0.361764,-0.932250,-0.015177,-0.004233,0.017379,13.477724,-2.459287,-30.714752,,,,,,,
1504196532.883898,0.006577,0.370616,1.510094,0.042058,-0.051549,-0.124527,0.006130,-0.362190,-0.932084,-0.015255,-0.003808,0.017213,13.477877,-2.608991,-30.863617,,,,,,,
1504196532.893908,0.006010,0.370921,1.509020,0.017224,-0.075877,-0.104245,0.005601,-0.362474,-0.931977,-0.015092,-0.000533,0.011277,13.477877,-2.608991,-30.863617,,,,,,,
1504196532.903918,0.005350,0.370918,1.508110,0.000071,-0.076820,-0.089327,0.004986,-0.362471,-0.931982,-0.011929,0.002531,-0.000117,13.327883,-2.609662,-30.863983,,,,,,,
1504196532.913928,0.004748,0.370744,1.507303,-0.015891,-0.066044,-0.080833,0.004425,-0.362309,-0.932047,-0.012055,0.002888,-0.000692,13.327883,-2.609662,-30.863983,,,,,,,
1504196532.923938,0.004224,0.370382,1.506598,-0.025488,-0.058519,-0.070188,0.003938,-0.361972,-0.932181,-0.002732,0.006778,0.006750,13.102541,-2.385968,-30.716217,,,,,,,
1504196532.933947,0.003842,0.370055,1.505921,-0.034128,-0.064853,-0.059518,0.003582,-0.361666,-0.932301,-0.002376,0.006472,0.006870,13.102541,-2.385968,-30.716217,,,,,,,
1504196532.943957,0.003410,0.369608,1.505378,-0.041748,-0.074395,-0.044571,0.003180,-0.361250,-0.932464,0.004984,0.005613,0.008727,13.252352,-2.310300,-30.716431,,,,,,,
1504196532.953967,0.002959,0.369135,1.504876,-0.043893,-0.074378,-0.042441,0.002760,-0.360808,-0.932636,0.007692,0.004333,0.005603,13.252352,-2.310300,-30.716431,,,,,,,
1504196532.963977,0.002620,0.368556,1.504338,-0.051235,-0.060460,-0.045681,0.002444,-0.360269,-0.932845,0.007734,0.006418,0.006240,13.326677,-2.309064,-31.166229,,,,,,,
1504196532.973986,0.002490,0.367836,1.503788,-0.066019,-0.041155,-0.045741,0.002324,-0.359597,-0.933105,0.008373,0.008294,0.006545,13.326677,-2.309064,-31.166229,,,,,,,
1504196532.983996,0.002471,0.366998,1.503278,-0.078697,-0.024002,-0.043659,0.002306,-0.358815,-0.933406,0.004972,0.006504,0.006938,13.026979,-2.161313,-30.718109,,,,,,,
1504196532.994006,0.002564,0.366123,1.502851,-0.082849,-0.004794,-0.036229,0.002394,-0.357998,-0.933719,0.002519,0.003704,0.003162,13.026979,-2.161313,-30.718109,,,,,,,
1504196533.004016,0.002770,0.365321,1.502482,-0.071015,0.008959,-0.034098,0.002587,-0.357249,-0.934006,-0.000176,0.003032,0.001571,13.177202,-2.385190,-30.941040,,,,,,,
1504196533.014024,0.002939,0.364680,1.502195,-0.052939,0.006670,-0.025523,0.002746,-0.356651,-0.934234,-0.001220,0.003639,0.000274,13.177202,-2.385190,-30.941040,,,,,,,
1504196533.024035,0.002961,0.364208,1.501979,-0.032846,-0.011617,-0.019051,0.002766,-0.356209,-0.934402,0.000102,0.004784,-0.000122,13.251482,-2.010144,-30.793671,,,,,,,
1504196533.034045,0.002801,0.363904,1.501803,-0.017011,-0.029867,-0.014722,0.002618,-0.355925,-0.934511,0.002280,0.004927,-0.002013,13.251482,-2.010144,-30.793671,,,,,,,
1504196533.044055,0.002520,0.363649,1.501614,-0.013923,-0.043744,-0.014693,0.002355,-0.355687,-0.934602,0.004222,0.004277,-0.005248,13.326754,-2.159665,-30.867371,,,,,,,
1504196533.054064,0.002189,0.363373,1.501407,-0.019260,-0.045827,-0.017901,0.002046,-0.355429,-0.934701,0.003782,0.002753,-0.007529,13.326754,-2.159665,-30.867371,,,,,,,
1504196533.064046,0.001902,0.363010,1.501203,-0.027742,-0.038299,-0.016862,0.001778,-0.355090,-0.934831,0.003151,0.001376,-0.012237,13.026262,-2.010861,-30.944244,,,,,,,
1504196533.074054,0.001715,0.362576,1.501039,-0.032935,-0.019077,-0.014770,0.001604,-0.354684,-0.934985,-0.001192,-0.001899,-0.013181,13.026262,-2.010861,-30.944244,,,,,,,
1504196533.084064,0.001699,0.362268,1.500921,-0.028558,-0.002069,-0.009455,0.001589,-0.354396,-0.935094,-0.001177,-0.002186,-0.013072,13.401628,-2.159177,-30.942200,,,,,,,
1504196533.094074,0.001758,0.362038,1.500844,-0.015738,0.002084,-0.006238,0.001644,-0.354181,-0.935176,0.000645,-0.002616,-0.011281,13.401628,-2.159177,-30.942200,,,,,,,
1504196533.104084,0.001770,0.361999,1.500791,-0.000825,-0.000171,-0.005141,0.001656,-0.354145,-0.935189,-0.000313,-0.003216,-0.008979,13.101595,-2.235227,-31.092346,,,,,,,
1504196533.114094,0.001824,0.362065,1.500667,0.013126,0.003986,-0.014730,0.001706,-0.354206,-0.935166,-0.001645,-0.001552,-0.009750,13.101595,-2.235227,-31.092346,,,,,,,
1504196533.124104,0.002022,0.362201,1.500438,0.015396,0.015698,-0.023286,0.001891,-0.354333,-0.935117,-0.000685,-0.002234,-0.008318,13.476030,-2.008542,-31.093109,,,,,,,
1504196533.134114,0.002364,0.362333,1.500116,0.009140,0.028545,-0.031859,0.002211,-0.354456,-0.935070,-0.001570,-0.004690,-0.008564,13.476030,-2.008542,-31.093109,,,,,,,
1504196533.144124,0.002784,0.362404,1.499819,-0.005748,0.037188,-0.027630,0.002603,-0.354523,-0.935044,-0.003656,-0.008270,-0.006668,13.325731,-1.709805,-30.795715,,,,,,,
1504196533.154134,0.003152,0.362373,1.499593,-0.020748,0.033041,-0.021244,0.002947,-0.354494,-0.935054,-0.004076,-0.010878,-0.004461,13.325731,-1.709805,-30.795715,,,,,,,
1504196533.164143,0.003383,0.362362,1.499448,-0.019865,0.014910,-0.012671,0.003163,-0.354484,-0.935057,-0.001332,-0.013604,-0.002779,13.326601,-2.009961,-30.718475,,,,,,,
1504196533.174153,0.003388,0.362467,1.499336,-0.005186,-0.015052,-0.008323,0.003167,-0.354582,-0.935019,0.001883,-0.012834,-0.000146,13.326601,-2.009961,-30.718475,,,,,,,
1504196533.184163,0.003123,0.362776,1.499194,0.015934,-0.046122,-0.013570,0.002920,-0.354871,-0.934911,0.004038,-0.011294,0.004521,13.325914,-1.784802,-30.795166,,,,,,,
1504196533.194173,0.002458,0.363330,1.498942,0.040145,-0.094262,-0.024117,0.002297,-0.355388,-0.934716,0.003730,-0.009815,0.006402,13.325914,-1.784802,-30.795166,,,,,,,
1504196533.204182,0.001393,0.364015,1.498586,0.053722,-0.135923,-0.031493,0.001302,-0.356029,-0.934474,0.005519,-0.006306,0.010066,13.326036,-2.009213,-31.093475,,,,,,,
1504196533.214192,0.000008,0.364863,1.498195,0.073772,-0.165921,-0.034608,0.000008,-0.356821,-0.934173,0.006783,-0.004065,0.010131,13.326036,-2.009213,-31.093475,,,,,,,
1504196533.224202,-0.001431,0.365824,1.497748,0.074878,-0.164858,-0.039945,-0.001336,-0.357718,-0.933829,0.005242,-0.008386,0.009115,13.176561,-2.085340,-30.868286,,,,,,,
1504196533.234212,-0.002765,0.366624,1.497300,0.061063,-0.156221,-0.036783,-0.002581,-0.358466,-0.933539,0.007937,-0.004739,0.009299,13.176561,-2.085340,-30.868286,,,,,,,
1504196533.244220,-0.004062,0.367123,1.496971,0.041935,-0.140090,-0.026171,-0.003791,-0.358932,-0.933356,0.003776,0.000335,0.004447,13.175844,-1.934888,-31.094421,,,,,,,
1504196533.254230,-0.005239,0.367449,1.496878,0.029312,-0.104843,-0.005974,-0.004889,-0.359236,-0.933234,-0.003045,-0.001207,-0.003045,13.175844,-1.934888,-31.094421,,,,,,,
1504196533.264241,-0.006118,0.367617,1.496989,0.015704,-0.062125,0.009939,-0.005710,-0.359393,-0.933169,-0.004880,0.001193,-0.004102,12.801638,-2.161862,-30.943665,,,,,,,
1504196533.274251,-0.006604,0.367619,1.497215,0.005363,-0.016228,0.017313,-0.006163,-0.359395,-0.933165,-0.007448,0.003606,-0.003160,12.801638,-2.161862,-30.943665,,,,,,,
1504196533.284261,-0.006680,0.367487,1.497454,-0.003926,0.023274,0.017228,-0.006234,-0.359271,-0.933212,-0.008369,0.004275,-0.007034,13.026796,-2.310559,-31.091980,,,,,,,
1504196533.294270,-0.006401,0.367263,1.497630,-0.014337,0.051071,0.009690,-0.005974,-0.359062,-0.933294,-0.007972,0.004769,-0.005182,13.026796,-2.310559,-31.091980,,,,,,,
1504196533.304280,-0.005867,0.366963,1.497655,-0.020569,0.063923,-0.004219,-0.005476,-0.358782,-0.933405,-0.005312,0.004412,-0.004018,13.026827,-2.235852,-30.942535,,,,,,,
1504196533.314290,-0.005360,0.366707,1.497559,-0.019552,0.051138,-0.014868,-0.005004,-0.358544,-0.933500,-0.006028,0.002343,-0.002261,13.026827,-2.235852,-30.942535,,,,,,,
1504196533.324300,-0.005021,0.366634,1.497382,-0.001638,0.021156,-0.017986,-0.004687,-0.358475,-0.933528,-0.002042,-0.000427,-0.000951,12.876146,-2.011380,-31.019592,,,,,,,
1504196533.334309,-0.004918,0.366812,1.497215,0.024861,0.000689,-0.015769,-0.004591,-0.358642,-0.933464,-0.001238,-0.001390,-0.001808,12.876146,-2.011380,-31.019592,,,,,,,
1504196533.344319,-0.005082,0.367341,1.497126,0.053412,-0.026195,-0.007133,-0.004743,-0.359135,-0.933273,-0.000064,-0.002162,0.003205,13.176821,-2.235181,-30.942169,,,,,,,
1504196533.354329,-0.005436,0.368101,1.497096,0.066048,-0.043355,-0.000677,-0.005072,-0.359844,-0.932999,0.001699,-0.004062,0.007782,13.176821,-2.235181,-30.942169,,,,,,,
1504196533.364339,-0.005891,0.368833,1.497100,0.059626,-0.045434,0.000383,-0.005495,-0.360527,-0.932733,0.001879,-0.003334,0.006188,13.101824,-2.235517,-30.942352,,,,,,,
1504196533.374348,-0.006185,0.369399,1.497011,0.043820,-0.028242,-0.011416,-0.005767,-0.361055,-0.932527,0.000976,-0.003325,0.004563,13.101824,-2.235517,-30.942352,,,,,,,
1504196533.384358,-0.006123,0.369788,1.496796,0.028189,0.010262,-0.024320,-0.005709,-0.361418,-0.932386,-0.001478,-0.004655,-0.000765,12.876528,-2.161389,-31.018463,,,,,,,
1504196533.394368,-0.005667,0.369992,1.496536,0.011423,0.047696,-0.025482,-0.005284,-0.361608,-0.932315,-0.002361,-0.003443,-0.001950,12.876528,-2.161389,-31.018463,,,,,,,
1504196533.404347,-0.004936,0.369992,1.496357,-0.009709,0.078763,-0.017034,-0.004602,-0.361608,-0.932319,-0.004706,-0.003245,0.000556,12.876787,-2.311231,-31.092346,,,,,,,
1504196533.414357,-0.004080,0.369865,1.496318,-0.022451,0.094837,-0.003208,-0.003804,-0.361490,-0.932368,-0.005595,-0.005926,-0.002370,12.876787,-2.311231,-31.092346,,,,,,,
1504196533.424367,-0.003197,0.369711,1.496392,-0.024623,0.095909,0.006393,-0.002981,-0.361346,-0.932427,-0.004404,-0.007230,-0.003028,13.026522,-2.160703,-31.018097,,,,,,,
1504196533.434377,-0.002405,0.369589,1.496515,-0.022625,0.082034,0.011758,-0.002243,-0.361232,-0.932473,-0.002136,-0.006032,0.002679,13.101641,-2.160520,-30.942932,,,,,,,
1504196533.444386,-0.001778,0.369540,1.496637,-0.011084,0.057431,0.011822,-0.001658,-0.361187,-0.932492,0.000849,-0.004185,0.004742,13.101641,-2.160520,-30.942932,,,,,,,
1504196533.454396,-0.001388,0.369656,1.496711,0.010032,0.027424,0.008708,-0.001294,-0.361295,-0.932451,0.003537,-0.002765,0.004564,13.101641,-2.160520,-30.942932,,,,,,,
1504196533.464406,-0.001247,0.369936,1.496748,0.024755,-0.001464,0.005582,-0.001163,-0.361556,-0.932350,0.005145,-0.000917,0.007194,12.951632,-2.161191,-30.943298,,,,,,,
1504196533.474416,-0.001366,0.370338,1.496779,0.037379,-0.023944,0.005643,-0.001273,-0.361931,-0.932204,0.005454,0.000831,0.008147,12.951632,-2.161191,-30.943298,,,,,,,
1504196533.484425,-0.001548,0.370842,1.496815,0.050182,-0.024048,0.005665,-0.001443,-0.362400,-0.932021,0.005014,-0.000942,0.001724,13.176943,-2.235333,-30.867157,,,,,,,
1504196533.494435,-0.001688,0.371375,1.496899,0.044952,-0.009090,0.008831,-0.001573,-0.362897,-0.931828,0.001038,-0.002291,0.002857,13.176943,-2.235333,-30.867157,,,,,,,
1504196533.504445,-0.001750,0.371687,1.497031,0.018376,0.004978,0.011963,-0.001631,-0.363188,-0.931714,-0.001284,-0.000688,0.006116,13.101824,-2.235517,-30.942352,,,,,,,
1504196533.514455,-0.001684,0.371715,1.497213,-0.004934,0.026479,0.014020,-0.001569,-0.363214,-0.931704,-0.004763,-0.002112,0.001117,13.101824,-2.235517,-30.942352,,,,,,,
1504196533.524464,-0.001379,0.371676,1.497486,-0.001535,0.057342,0.023579,-0.001285,-0.363178,-0.931719,-0.006772,-0.002194,-0.005720,13.102205,-2.385526,-30.941223,,,,,,,
1504196533.534474,-0.000847,0.371786,1.497866,0.015686,0.082762,0.034238,-0.000790,-0.363280,-0.931680,-0.007618,-0.001054,-0.004508,13.102205,-2.385526,-30.941223,,,,,,,
1504196533.544484,-0.000315,0.371999,1.498307,0.019921,0.080591,0.037453,-0.000294,-0.363479,-0.931603,-0.009121,0.000228,0.002266,12.877550,-2.386975,-30.716797,,,,,,,
1504196533.554494,0.000072,0.372149,1.498717,0.012261,0.054017,0.033217,0.000067,-0.363618,-0.931548,-0.005743,0.000825,0.002502,12.877550,-2.386975,-30.716797,,,,,,,
1504196533.564503,0.000280,0.372226,1.498998,0.005616,0.018915,0.025796,0.000260,-0.363690,-0.931520,0.001754,-0.000690,-0.000365,13.101900,-2.310376,-31.016785,,,,,,,
1504196533.574512,0.000259,0.372309,1.499159,0.003284,-0.011957,0.016239,0.000241,-0.363767,-0.931490,0.005664,-0.003222,-0.001219,13.101900,-2.310376,-31.016785,,,,,,,
1504196533.584522,0.000083,0.372442,1.499212,0.001050,-0.030043,0.007727,0.000078,-0.363891,-0.931441,0.006331,-0.005860,0.003661,12.952196,-2.386197,-30.941620,,,,,,,
1504196533.594532,-0.000145,0.372637,1.499241,0.007473,-0.029027,0.005601,-0.000135,-0.364073,-0.931371,0.005842,-0.006670,0.004567,13.027391,-2.460858,-30.940857,,,,,,,
1504196533.604542,-0.000367,0.372965,1.499330,0.021417,-0.017424,0.009874,-0.000342,-0.364378,-0.931251,0.001959,-0.007097,0.005653,13.027391,-2.460858,-30.940857,,,,,,,
1504196533.614552,-0.000434,0.373453,1.499554,0.031205,0.013384,0.022645,-0.000404,-0.364832,-0.931073,-0.002099,-0.007787,0.010693,13.027391,-2.460858,-30.940857,,,,,,,
1504196533.624562,-0.000305,0.374028,1.499896,0.033446,0.033599,0.034355,-0.000284,-0.365368,-0.930863,-0.002005,-0.009373,0.011659,13.027727,-2.461316,-30.715851,,,,,,,
1504196533.634572,-0.000125,0.374531,1.500322,0.021722,0.037952,0.039664,-0.000117,-0.365836,-0.930679,-0.003622,-0.010705,0.010666,13.027727,-2.461316,-30.715851,,,,,,,
1504196533.644582,0.000006,0.374789,1.500784,-0.000735,0.031741,0.040704,0.000005,-0.366076,-0.930585,-0.002905,-0.009931,0.009183,12.877916,-2.536984,-30.715668,,,,,,,
1504196533.654591,0.000119,0.374850,1.501194,-0.016761,0.026549,0.037483,0.000111,-0.366133,-0.930562,-0.000248,-0.010927,0.005712,12.877916,-2.536984,-30.715668,,,,,,,
1504196533.664601,0.000259,0.374844,1.501534,-0.014650,0.020144,0.032161,0.000241,-0.366127,-0.930565,0.002521,-0.010429,-0.000969,13.102312,-2.385678,-30.866211,,,,,,,
1504196533.674611,0.000334,0.374835,1.501821,-0.010399,0.013722,0.025775,0.000311,-0.366119,-0.930568,0.000986,-0.007202,0.000682,13.102312,-2.385678,-30.866211,,,,,,,
1504196533.684621,0.000325,0.374831,1.502071,-0.002969,0.006206,0.021531,0.000303,-0.366115,-0.930570,-0.000104,-0.004170,-0.001315,13.327013,-2.309506,-30.941254,,,,,,,
1504196533.694630,0.000192,0.374927,1.502280,0.011931,-0.002435,0.015168,0.000178,-0.366205,-0.930534,-0.003367,-0.002402,-0.004921,13.327013,-2.309506,-30.941254,,,,,,,
1504196533.704640,0.000008,0.375201,1.502429,0.027931,-0.007934,0.010968,0.000007,-0.366460,-0.930434,-0.003745,-0.002864,-0.001909,13.252321,-2.384992,-30.865845,,,,,,,
1504196533.714650,-0.000153,0.375626,1.502507,0.037593,-0.005875,0.002443,-0.000142,-0.366855,-0.930278,-0.004176,-0.002530,0.001949,13.327761,-2.609509,-30.938995,,,,,,,
1504196533.724660,-0.000255,0.376051,1.502553,0.039823,0.004764,0.000294,-0.000237,-0.367250,-0.930122,-0.006385,-0.000685,0.002312,13.327761,-2.609509,-30.938995,,,,,,,
1504196533.734639,-0.000192,0.376416,1.502581,0.033586,0.023997,-0.001885,-0.000178,-0.367590,-0.929988,-0.007299,-0.000498,0.001659,12.877550,-2.386975,-30.716797,,,,,,,
1504196533.744649,0.000125,0.376706,1.502626,0.028401,0.045346,0.002339,0.000117,-0.367860,-0.929881,-0.005946,-0.000396,-0.002507,12.877550,-2.386975,-30.716797,,,,,,,
1504196533.754658,0.000533,0.376951,1.502749,0.020959,0.053922,0.010851,0.000496,-0.368087,-0.929791,-0.005592,-0.000230,0.000073,13.327913,-2.534955,-30.714539,,,,,,,
1504196533.764668,0.000909,0.377101,1.502900,0.005919,0.042321,0.012980,0.000845,-0.368227,-0.929736,-0.002890,-0.001921,0.003344,13.327913,-2.534955,-30.714539,,,,,,,
1504196533.774678,0.001046,0.377151,1.503032,-0.005002,0.009380,0.010884,0.000972,-0.368274,-0.929717,0.000249,-0.002698,0.003920,12.952761,-2.611203,-30.939911,,,,,,,
1504196533.784688,0.000910,0.377121,1.503016,-0.007398,-0.032143,-0.002923,0.000846,-0.368245,-0.929728,0.003793,-0.001490,0.004969,12.952761,-2.611203,-30.939911,,,,,,,
1504196533.794698,0.000423,0.377156,1.502750,-0.000209,-0.081195,-0.025241,0.000393,-0.368278,-0.929716,0.008167,-0.000405,0.007261,13.177462,-2.535031,-31.014893,,,,,,,
1504196533.804707,-0.000430,0.377236,1.502165,0.002748,-0.132332,-0.058236,-0.000399,-0.368352,-0.929686,0.008960,0.001195,0.010298,13.177462,-2.535031,-31.014893,,,,,,,
1504196533.814717,-0.001620,0.377186,1.501143,-0.013380,-0.175841,-0.103019,-0.001506,-0.368306,-0.929703,0.006969,0.002171,0.011170,13.327608,-2.459805,-30.790100,,,,,,,
1504196533.824727,-0.002998,0.376903,1.499653,-0.040006,-0.197952,-0.147857,-0.002788,-0.368043,-0.929805,0.002406,-0.000014,0.008860,13.327608,-2.459805,-30.790100,,,,,,,
1504196533.834737,-0.004154,0.376557,1.497613,-0.049301,-0.192493,-0.200186,-0.003863,-0.367720,-0.929928,0.003390,-0.008012,0.005124,13.102648,-2.386121,-30.641205,,,,,,,
1504196533.844746,-0.005239,0.376398,1.495350,-0.029883,-0.175589,-0.215125,-0.004872,-0.367573,-0.929982,-0.006205,-0.011028,0.005833,13.102648,-2.386121,-30.641205,,,,,,,
1504196533.854756,-0.006345,0.376548,1.493355,0.003178,-0.157782,-0.183075,-0.005900,-0.367712,-0.929921,-0.010869,-0.009134,0.008519,12.877321,-2.386685,-30.866791,,,,,,,
1504196533.864766,-0.007548,0.377260,1.491969,0.056406,-0.135909,-0.123245,-0.007017,-0.368374,-0.929651,-0.017077,-0.013263,0.010080,12.877321,-2.386685,-30.866791,,,,,,,
1504196533.874776,-0.008831,0.378426,1.491369,0.105372,-0.106554,-0.052761,-0.008206,-0.369458,-0.929211,-0.022098,-0.009769,0.007474,12.876757,-2.161679,-30.868469,,,,,,,
1504196533.884785,-0.010058,0.379926,1.491477,0.127665,-0.081235,0.011279,-0.009340,-0.370852,-0.928645,-0.019560,-0.009001,0.014125,12.876757,-2.161679,-30.868469,,,,,,,
1504196533.894795,-0.011204,0.381271,1.492076,0.111546,-0.069428,0.053928,-0.010400,-0.372101,-0.928134,-0.011314,-0.004547,0.014697,12.727205,-2.387204,-30.942169,,,,,,,
1504196533.904805,-0.012307,0.382228,1.492764,0.071940,-0.081896,0.060286,-0.011419,-0.372989,-0.927765,-0.002864,-0.002682,0.012528,12.727205,-2.387204,-30.942169,,,,,,,
1504196533.914815,-0.013462,0.382668,1.493268,0.020570,-0.112357,0.043172,-0.012488,-0.373397,-0.927588,0.005530,-0.001725,0.012091,12.877657,-2.611386,-31.015076,,,,,,,
1504196533.924825,-0.014660,0.382655,1.493388,-0.024283,-0.138590,0.010049,-0.013599,-0.373385,-0.927577,0.012852,-0.001814,0.015117,12.877657,-2.611386,-31.015076,,,,,,,
1504196533.934834,-0.015610,0.382297,1.493076,-0.051719,-0.123405,-0.026319,-0.014483,-0.373053,-0.927697,0.015887,-0.001810,0.014321,12.877047,-2.461087,-31.166199,,,,,,,
1504196533.944844,-0.016031,0.381829,1.492511,-0.061788,-0.062557,-0.048860,-0.014876,-0.372618,-0.927865,0.011503,-0.002382,0.012948,12.877047,-2.461087,-31.166199,,,,,,,
1504196533.954854,-0.015841,0.381297,1.491948,-0.067545,0.018476,-0.047946,-0.014703,-0.372125,-0.928066,0.001046,0.000482,0.021694,12.427095,-2.388410,-31.017883,,,,,,,
1504196533.964864,-0.015053,0.380677,1.491649,-0.068053,0.101573,-0.026744,-0.013975,-0.371549,-0.928308,-0.008791,0.002882,0.019723,12.427095,-2.388410,-31.017883,,,,,,,
1504196533.974873,-0.013839,0.380106,1.491728,-0.060277,0.161143,0.007323,-0.012851,-0.371019,-0.928536,-0.015866,0.002687,0.015344,12.652925,-2.537992,-30.716217,,,,,,,
1504196533.984883,-0.012578,0.379631,1.492160,-0.048634,0.167407,0.036154,-0.011682,-0.370578,-0.928728,-0.017722,0.002917,0.015474,12.652925,-2.537992,-30.716217,,,,,,,
1504196533.994893,-0.011500,0.379306,1.492753,-0.037255,0.133194,0.053313,-0.010682,-0.370276,-0.928860,-0.010268,-0.000421,0.012631,12.877199,-2.386533,-30.941803,,,,,,,
1504196534.004903,-0.010807,0.379002,1.493304,-0.036666,0.071388,0.050221,-0.010040,-0.369994,-0.928980,-0.000153,-0.000383,0.008097,12.877199,-2.386533,-30.941803,,,,,,,
1504196534.014912,-0.010575,0.378636,1.493634,-0.039178,0.010693,0.028975,-0.009826,-0.369653,-0.929118,0.006789,0.001458,0.007426,12.802507,-2.462018,-30.866394,,,,,,,
1504196534.024922,-0.010582,0.378153,1.493649,-0.042568,-0.028676,0.003419,-0.009834,-0.369205,-0.929296,0.012901,0.003665,-0.000376,12.802507,-2.462018,-30.866394,,,,,,,
1504196534.034932,-0.010706,0.377657,1.493446,-0.041519,-0.041451,-0.013636,-0.009951,-0.368744,-0.929478,0.012927,0.004974,-0.001171,12.427095,-2.388410,-31.017883,,,,,,,
1504196534.044942,-0.010848,0.377229,1.493190,-0.041509,-0.041447,-0.015772,-0.010085,-0.368346,-0.929634,0.011610,0.000945,0.001076,12.427095,-2.388410,-31.017883,,,,,,,
1504196534.054951,-0.010946,0.376816,1.493047,-0.039205,-0.014833,-0.007277,-0.010178,-0.367962,-0.929785,0.004700,0.000378,0.000387,12.876757,-2.161679,-30.868469,,,,,,,
1504196534.064904,-0.010862,0.376456,1.493091,-0.031530,0.020253,0.007619,-0.010101,-0.367627,-0.929919,-0.000885,0.000073,-0.002546,12.876757,-2.161679,-30.868469,,,,,,,
1504196534.074913,-0.010557,0.376224,1.493287,-0.019576,0.054241,0.018254,-0.009819,-0.367411,-0.930007,-0.005837,-0.000249,-0.001924,12.577089,-2.387738,-31.017517,,,,,,,
1504196534.084923,-0.009968,0.376057,1.493571,-0.012932,0.087214,0.022478,-0.009271,-0.367256,-0.930074,-0.007285,0.000130,-0.001262,12.577089,-2.387738,-31.017517,,,,,,,
1504196534.094933,-0.009174,0.375889,1.493867,-0.013832,0.107467,0.021374,-0.008534,-0.367100,-0.930142,-0.009166,0.000996,-0.002139,12.352541,-2.389340,-30.718079,,,,,,,
1504196534.104943,-0.008201,0.375678,1.494101,-0.020083,0.122442,0.014933,-0.007629,-0.366904,-0.930228,-0.008911,-0.000116,-0.004419,12.352541,-2.389340,-30.718079,,,,,,,
1504196534.114953,-0.007023,0.375332,1.494242,-0.029521,0.138510,0.007418,-0.006534,-0.366582,-0.930363,-0.008144,0.002004,-0.006328,12.802355,-2.536572,-31.090851,,,,,,,
1504196534.124962,-0.005529,0.374922,1.494274,-0.032453,0.166248,-0.002242,-0.005145,-0.366200,-0.930522,-0.006833,0.001500,-0.009847,12.802355,-2.536572,-31.090851,,,,,,,
1504196534.134972,-0.003919,0.374601,1.494266,-0.019563,0.174669,-0.006503,-0.003648,-0.365901,-0.930646,-0.010436,0.000438,-0.013293,12.652208,-2.387540,-30.942352,,,,,,,
1504196534.144982,-0.002481,0.374488,1.494259,0.002660,0.152106,-0.006424,-0.002309,-0.365797,-0.930692,-0.011821,0.001996,-0.008822,12.652208,-2.387540,-30.942352,,,,,,,
1504196534.154992,-0.001473,0.374543,1.494256,0.022710,0.119977,-0.013802,-0.001371,-0.365848,-0.930674,-0.007967,0.001163,-0.006216,12.427553,-2.389005,-30.717896,,,,,,,
1504196534.165001,-0.000439,0.374865,1.494040,0.033160,0.087931,-0.021199,-0.000409,-0.366147,-0.930557,-0.008930,0.001462,-0.006333,12.427553,-2.389005,-30.717896,,,,,,,
1504196534.175011,0.000251,0.375208,1.493817,0.022201,0.052854,-0.019021,0.000234,-0.366466,-0.930431,-0.000615,-0.004322,-0.000279,12.952761,-2.386945,-30.566589,,,,,,,
1504196534.185021,0.000707,0.375444,1.493667,-0.001488,0.030663,-0.010485,0.000657,-0.366686,-0.930345,0.001814,-0.011015,0.003175,12.952761,-2.386945,-30.566589,,,,,,,
1504196534.195031,0.000917,0.375500,1.493628,-0.020833,0.018026,-0.001957,0.000853,-0.366738,-0.930324,-0.000929,-0.015785,-0.003285,12.877321,-2.386685,-30.866791,,,,,,,
1504196534.205040,0.001013,0.375521,1.493653,-0.020901,0.011628,0.002324,0.000942,-0.366757,-0.930316,-0.001827,-0.016758,-0.003506,12.877321,-2.386685,-30.866791,,,,,,,
1504196534.215050,0.001014,0.375566,1.493754,-0.013523,0.005165,0.010887,0.000943,-0.366799,-0.930300,-0.001935,-0.012519,0.000765,13.252657,-2.385449,-30.640839,,,,,,,
1504196534.225060,0.000918,0.375692,1.493952,0.001271,-0.005625,0.022673,0.000854,-0.366916,-0.930254,0.001862,-0.008419,0.003450,13.252657,-2.385449,-30.640839,,,,,,,
1504196534.235070,0.000734,0.375919,1.494301,0.011814,-0.011057,0.039779,0.000683,-0.367127,-0.930171,0.003270,-0.006393,0.003962,12.877611,-2.461835,-30.791199,,,,,,,
1504196534.245079,0.000544,0.376189,1.494838,0.012867,-0.002557,0.056844,0.000506,-0.367379,-0.930071,0.003614,-0.006279,0.006045,12.877611,-2.461835,-30.791199,,,,,,,
1504196534.255089,0.000360,0.376639,1.495515,0.009773,0.013446,0.062147,0.000335,-0.367797,-0.929906,-0.002197,-0.009232,0.007405,13.327166,-2.234952,-30.716797,,,,,,,
1504196534.265099,0.000455,0.376723,1.496160,0.008941,0.040097,0.057829,0.000423,-0.367875,-0.929875,-0.002285,-0.009154,0.007374,13.327166,-2.234952,-30.716797,,,,,,,
1504196534.275109,0.000711,0.377029,1.496794,0.009136,0.061411,0.053523,0.000661,-0.368160,-0.929762,-0.006139,-0.009586,0.009108,13.101976,-2.160977,-30.717926,,,,,,,
1504196534.285119,0.000971,0.377377,1.497411,0.013404,0.060309,0.052465,0.000903,-0.368483,-0.929634,-0.008868,-0.008134,0.014671,13.101976,-2.160977,-30.717926,,,,,,,
1504196534.295128,0.001009,0.377800,1.498056,0.022794,0.034653,0.054663,0.000938,-0.368877,-0.929478,-0.009209,-0.007039,0.015171,13.027315,-2.386014,-30.866394,,,,,,,
1504196534.305138,0.000676,0.378335,1.498714,0.032054,-0.008050,0.055822,0.000628,-0.369374,-0.929281,-0.007357,-0.007304,0.017858,13.027315,-2.386014,-30.866394,,,,,,,
1504196534.315148,0.000000,0.378945,1.499261,0.033874,-0.053876,0.046299,0.000000,-0.369940,-0.929056,-0.002289,-0.008569,0.020700,13.102236,-2.310819,-30.791779,,,,,,,
1504196534.325158,-0.000875,0.379568,1.499549,0.028431,-0.084706,0.019659,-0.000813,-0.370519,-0.928825,0.001423,-0.010493,0.020866,13.102236,-2.310819,-30.791779,,,,,,,
1504196534.335167,-0.001690,0.380023,1.499337,0.010537,-0.088765,-0.034803,-0.001569,-0.370942,-0.928655,0.000471,-0.010787,0.019994,13.102770,-2.386273,-30.566193,,,,,,,
1504196534.345177,-0.002096,0.380157,1.498437,-0.014488,-0.059716,-0.104278,-0.001947,-0.371066,-0.928604,-0.002845,-0.006910,0.016007,13.102770,-2.386273,-30.566193,,,,,,,
1504196534.355187,-0.001791,0.380066,1.496811,-0.027553,-0.001997,-0.172716,-0.001663,-0.370982,-0.928639,-0.008683,-0.005804,0.011357,13.027544,-2.386304,-30.716400,,,,,,,
1504196534.365197,-0.000984,0.379996,1.494915,-0.016382,0.051203,-0.187731,-0.000914,-0.370916,-0.928666,-0.019625,-0.006006,0.004029,13.027544,-2.386304,-30.716400,,,,,,,
1504196534.375206,-0.000024,0.380100,1.493293,-0.001346,0.081944,-0.157869,-0.000023,-0.371013,-0.928628,-0.026909,-0.007161,0.007134,13.102434,-2.385816,-30.791199,,,,,,,
1504196534.385216,0.000923,0.380511,1.492236,0.023222,0.116845,-0.106649,0.000857,-0.371395,-0.928475,-0.035189,-0.015461,0.001686,13.102434,-2.385816,-30.791199,,,,,,,
1504196534.395195,0.001984,0.381126,1.491801,0.047776,0.154936,-0.047962,0.001842,-0.371966,-0.928244,-0.037639,-0.015104,-0.009225,13.326677,-2.084805,-30.792908,,,,,,,
1504196534.405205,0.003093,0.381920,1.491935,0.056134,0.167588,0.008607,0.002870,-0.372703,-0.927946,-0.034059,-0.015801,-0.002626,13.326677,-2.084805,-30.792908,,,,,,,
1504196534.415215,0.004073,0.382651,1.492505,0.039880,0.157024,0.042757,0.003779,-0.373381,-0.927670,-0.028238,-0.014955,0.003094,13.102083,-2.161115,-30.642914,,,,,,,
1504196534.425225,0.004651,0.383131,1.493251,0.017005,0.107108,0.057752,0.004313,-0.373826,-0.927489,-0.023891,-0.013884,0.003416,13.102083,-2.161115,-30.642914,,,,,,,
1504196534.435235,0.004849,0.383430,1.493882,-0.008221,0.019938,0.056794,0.004497,-0.374103,-0.927376,-0.000515,-0.016674,0.007119,13.102724,-2.460965,-30.715668,,,,,,,
1504196534.445244,0.004327,0.383533,1.494317,-0.024858,-0.070482,0.039844,0.004013,-0.374200,-0.927340,0.008179,-0.015067,0.011293,13.102724,-2.460965,-30.715668,,,,,,,
1504196534.455254,0.003339,0.383543,1.494384,-0.029446,-0.131147,0.007918,0.003096,-0.374208,-0.927340,0.016282,-0.014525,0.009905,13.102358,-2.310971,-30.716797,,,,,,,
1504196534.465264,0.002285,0.383583,1.494117,-0.024014,-0.137551,-0.020884,0.002119,-0.374245,-0.927327,0.016344,-0.012489,0.013814,13.102358,-2.310971,-30.716797,,,,,,,
1504196534.475274,0.001520,0.383650,1.493745,-0.020413,-0.092816,-0.028430,0.001410,-0.374307,-0.927304,0.010965,-0.010184,0.018048,13.252657,-2.385449,-30.640839,,,,,,,
1504196534.485283,0.000943,0.383675,1.493637,-0.017872,-0.031053,-0.010388,0.000874,-0.374330,-0.927295,-0.007451,-0.005873,0.017413,13.252657,-2.385449,-30.640839,,,,,,,
1504196534.495293,0.000623,0.383644,1.493905,-0.021829,0.025422,0.018328,0.000577,-0.374302,-0.927307,-0.021497,-0.003444,0.020126,12.876787,-2.086987,-30.719025,,,,,,,
1504196534.505303,0.000501,0.383631,1.494589,-0.023867,0.061622,0.057758,0.000465,-0.374290,-0.927311,-0.025260,-0.005882,0.018315,12.876787,-2.086987,-30.719025,,,,,,,
1504196534.515313,0.000260,0.383575,1.495684,-0.033675,0.055270,0.089778,0.000241,-0.374238,-0.927333,-0.026455,-0.009444,0.017283,12.727541,-2.387662,-30.717163,,,,,,,
1504196534.525322,-0.000236,0.383379,1.496871,-0.050978,0.027698,0.093002,-0.000219,-0.374056,-0.927406,-0.025431,-0.011442,0.014076,12.727541,-2.387662,-30.717163,,,,,,,
1504196534.535332,-0.000821,0.383096,1.497833,-0.046996,-0.017078,0.079212,-0.000762,-0.373793,-0.927512,-0.009431,-0.009568,0.007391,13.027925,-2.536313,-30.715302,,,,,,,
1504196534.545342,-0.001500,0.382933,1.498524,-0.033379,-0.059796,0.062232,-0.001391,-0.373643,-0.927572,0.004473,-0.010345,0.006032,13.027925,-2.536313,-30.715302,,,,,,,
1504196534.555352,-0.002400,0.382877,1.498942,-0.022704,-0.080095,0.029196,-0.002227,-0.373591,-0.927591,0.004103,-0.004629,0.018915,12.877657,-2.387128,-30.641785,,,,,,,
1504196534.565361,-0.003261,0.382877,1.498878,-0.014084,-0.097169,-0.014524,-0.003025,-0.373590,-0.927589,0.005665,0.000391,0.023612,12.877657,-2.387128,-30.641785,,,,,,,
1504196534.575371,-0.004205,0.382556,1.498499,-0.022721,-0.121586,-0.033709,-0.003901,-0.373293,-0.927705,0.003855,0.020342,0.035967,13.102358,-2.310971,-30.716797,,,,,,,
1504196534.585381,-0.005219,0.382425,1.498093,-0.025074,-0.143950,-0.025137,-0.004842,-0.373171,-0.927750,0.016194,0.003649,0.026749,13.102358,-2.310971,-30.716797,,,,,,,
1504196534.595391,-0.006542,0.382683,1.497908,-0.021811,-0.131200,-0.015548,-0.006069,-0.373410,-0.927646,-0.000767,-0.024493,0.015278,12.877016,-2.311536,-30.942352,,,,,,,
1504196534.605401,-0.007731,0.383003,1.497966,-0.019437,-0.089684,0.004664,-0.007171,-0.373708,-0.927519,-0.008500,-0.024119,0.020536,12.877016,-2.311536,-30.942352,,,,,,,
1504196534.615410,-0.008691,0.383107,1.498354,-0.025655,-0.048110,0.035536,-0.008061,-0.373804,-0.927473,-0.013179,-0.011023,0.025724,12.652651,-2.388150,-30.642334,,,,,,,
1504196534.625420,-0.009465,0.382890,1.499206,-0.049974,0.004257,0.075966,-0.008779,-0.373602,-0.927547,-0.020929,-0.004342,0.024425,12.652651,-2.388150,-30.642334,,,,,,,
1504196534.635430,-0.009692,0.382432,1.500452,-0.082599,0.081209,0.109933,-0.008992,-0.373178,-0.927716,-0.022274,-0.014075,0.012418,12.727098,-2.162808,-30.643829,,,,,,,
1504196534.645440,-0.009349,0.381820,1.502062,-0.098143,0.155892,0.138598,-0.008676,-0.372610,-0.927947,-0.028769,-0.019952,0.010116,12.727098,-2.162808,-30.643829,,,,,,,
1504196534.655449,-0.008668,0.381095,1.503832,-0.083068,0.178131,0.147128,-0.008046,-0.371937,-0.928223,-0.028102,-0.008647,0.009232,12.727541,-2.387662,-30.717163,,,,,,,
1504196534.665459,-0.008066,0.380564,1.505513,-0.035314,0.142573,0.141940,-0.007489,-0.371444,-0.928425,-0.021808,0.002990,0.006611,12.727541,-2.387662,-30.717163,,,,,,,
1504196534.675469,-0.007934,0.380611,1.507131,0.040775,0.055625,0.148630,-0.007366,-0.371487,-0.928409,-0.004917,0.009824,0.001651,13.027361,-2.311307,-30.716980,,,,,,,
1504196534.685479,-0.008672,0.381240,1.508839,0.109274,-0.040858,0.163863,-0.008049,-0.372072,-0.928169,0.005471,0.018098,-0.004860,13.027361,-2.311307,-30.716980,,,,,,,
1504196534.695488,-0.010062,0.382285,1.510616,0.142969,-0.093352,0.168283,-0.009336,-0.373041,-0.927768,0.007947,0.018458,-0.004849,12.802431,-2.162915,-30.418610,,,,,,,
1504196534.705498,-0.011521,0.383342,1.512376,0.128082,-0.090067,0.166146,-0.010684,-0.374022,-0.927358,0.010181,0.014281,-0.008967,12.802431,-2.162915,-30.418610,,,,,,,
1504196534.715508,-0.012616,0.384021,1.514048,0.074186,-0.034196,0.151011,-0.011697,-0.374652,-0.927092,0.004189,0.011035,-0.007662,12.877657,-2.387128,-30.641785,,,,,,,
1504196534.725487,-0.012941,0.384070,1.515588,-0.002752,0.071951,0.130411,-0.011998,-0.374698,-0.927069,-0.011242,0.004550,-0.006326,12.877657,-2.387128,-30.641785,,,,,,,
1504196534.735497,-0.011705,0.383492,1.516859,-0.070981,0.203597,0.116185,-0.010855,-0.374161,-0.927300,-0.031031,-0.017745,0.001504,12.727510,-2.462354,-30.866577,,,,,,,
1504196534.745507,-0.009301,0.382460,1.518196,-0.108564,0.316843,0.131931,-0.008629,-0.373204,-0.927709,-0.028907,-0.039485,0.019048,12.727510,-2.462354,-30.866577,,,,,,,
1504196534.755517,-0.006277,0.381262,1.519907,-0.120009,0.376573,0.169165,-0.005826,-0.372093,-0.928177,-0.031711,-0.040597,0.019516,12.877764,-2.387280,-30.566772,,,,,,,
1504196534.765526,-0.003866,0.381084,1.522214,-0.114784,0.378623,0.197992,-0.003589,-0.371927,-0.928255,-0.035504,-0.050818,0.025957,12.877764,-2.387280,-30.566772,,,,,,,
1504196534.775536,-0.001238,0.380007,1.524421,-0.104537,0.330579,0.205567,-0.001150,-0.370927,-0.928661,-0.031061,-0.044402,0.022091,12.878222,-2.387876,-30.266754,,,,,,,
1504196534.785546,0.000703,0.378956,1.526528,-0.105101,0.250679,0.190763,0.000653,-0.369951,-0.929051,-0.015760,-0.037734,0.024876,12.878222,-2.387876,-30.266754,,,,,,,
1504196534.795556,0.001692,0.377868,1.528321,-0.110127,0.134605,0.156802,0.001572,-0.368940,-0.929452,-0.004258,-0.034991,0.026528,13.178225,-2.386533,-30.265991,,,,,,,
1504196534.805565,0.001501,0.377478,1.529786,-0.110050,-0.006028,0.132498,0.001395,-0.368577,-0.929596,0.013345,-0.036620,0.022843,13.178225,-2.386533,-30.265991,,,,,,,
1504196534.815575,0.000163,0.376361,1.531042,-0.112895,-0.108280,0.111325,0.000151,-0.367539,-0.930008,0.014589,-0.037658,0.023255,13.253405,-2.461194,-30.265259,,,,,,,
1504196534.825585,-0.001403,0.375284,1.532136,-0.100069,-0.112636,0.099614,-0.001305,-0.366537,-0.930403,0.006417,-0.041178,0.021482,13.253405,-2.461194,-30.265259,,,,,,,
1504196534.835595,-0.002465,0.374631,1.533275,-0.050496,-0.044856,0.109187,-0.002294,-0.365929,-0.930640,-0.001338,-0.034294,0.023337,13.177462,-2.086530,-30.268250,,,,,,,
1504196534.845604,-0.002942,0.375711,1.534661,0.011064,0.053721,0.121928,-0.002737,-0.366934,-0.930243,-0.013682,-0.047434,0.032309,13.177462,-2.086530,-30.268250,,,,,,,
1504196534.855614,-0.002189,0.376213,1.536025,0.062988,0.145995,0.127192,-0.002036,-0.367401,-0.930060,-0.029062,-0.045349,0.033866,13.028261,-2.312497,-30.116943,,,,,,,
1504196534.865624,-0.000841,0.376931,1.537303,0.070857,0.187503,0.113256,-0.000782,-0.368068,-0.929798,-0.026165,-0.029499,0.024845,13.028261,-2.312497,-30.116943,,,,,,,
1504196534.875634,0.000419,0.377414,1.538287,0.039738,0.147297,0.084453,0.000390,-0.368518,-0.929621,-0.020226,-0.015134,0.019159,13.027315,-2.161756,-30.493073,,,,,,,
1504196534.885643,0.000785,0.377823,1.539002,0.005075,0.060236,0.050391,0.000730,-0.368898,-0.929469,-0.010541,-0.011564,0.006084,13.027315,-2.161756,-30.493073,,,,,,,
1504196534.895653,0.000620,0.377764,1.539293,-0.007219,-0.028077,0.020638,0.000577,-0.368843,-0.929492,-0.003690,-0.014458,-0.004407,12.877123,-2.087430,-30.493988,,,,,,,
1504196534.905663,-0.000234,0.377821,1.539413,0.010445,-0.095342,0.007979,-0.000217,-0.368896,-0.929471,0.011173,-0.025284,0.008633,12.877123,-2.087430,-30.493988,,,,,,,
1504196534.915673,-0.001473,0.378223,1.539501,0.050750,-0.124446,0.009167,-0.001369,-0.369269,-0.929321,0.012325,-0.024911,0.008484,13.028215,-2.387204,-30.266357,,,,,,,
1504196534.925683,-0.002516,0.379844,1.539628,0.105144,-0.118514,0.025258,-0.002337,-0.370775,-0.928720,0.012179,-0.028303,0.014260,13.028215,-2.387204,-30.266357,,,,,,,
1504196534.935692,-0.003558,0.381073,1.539967,0.123564,-0.079245,0.031625,-0.003302,-0.371917,-0.928260,0.015265,-0.032777,0.022392,12.878038,-2.312879,-30.267303,,,,,,,
1504196534.945702,-0.003803,0.382994,1.540156,0.098496,-0.020416,0.020801,-0.003528,-0.373699,-0.927543,0.010287,-0.029026,0.028266,12.878038,-2.312879,-30.267303,,,,,,,
1504196534.955712,-0.002385,0.385255,1.539764,0.041600,0.050422,-0.003986,-0.002210,-0.375796,-0.926700,0.027845,-0.035093,0.022067,13.103106,-2.386716,-30.341187,,,,,,,
1504196534.965722,-0.001439,0.385163,1.539592,-0.026221,0.098948,-0.019132,-0.001333,-0.375710,-0.926736,0.026968,-0.035178,0.022104,13.103106,-2.386716,-30.341187,,,,,,,
1504196534.975731,0.000510,0.385438,1.539140,-0.080497,0.117514,-0.013930,0.000473,-0.375965,-0.926634,0.030838,-0.040035,0.021284,12.653521,-2.464047,-30.191742,,,,,,,
1504196534.985741,0.002417,0.385427,1.538772,-0.110616,0.093250,-0.000072,0.002240,-0.375955,-0.926635,0.037067,-0.044730,0.021163,12.653521,-2.464047,-30.191742,,,,,,,
1504196534.995751,0.003007,0.384275,1.538879,-0.115280,0.051716,0.012802,0.002787,-0.374887,-0.927066,0.048818,-0.050101,0.024890,12.802660,-2.163220,-30.268616,,,,,,,
1504196535.005761,0.003044,0.383230,1.539004,-0.098660,-0.005961,0.010798,0.002824,-0.373918,-0.927457,0.063445,-0.048048,0.030378,12.802660,-2.163220,-30.268616,,,,,,,
1504196535.015770,0.002643,0.382486,1.539044,-0.064813,-0.048854,0.001325,0.002452,-0.373228,-0.927736,0.063817,-0.048738,0.030657,12.952547,-2.162396,-30.343262,,,,,,,
1504196535.025780,0.003429,0.383271,1.538374,-0.027760,-0.094948,-0.010286,0.003181,-0.373956,-0.927441,0.066781,-0.043204,0.031887,12.952547,-2.162396,-30.343262,,,,,,,
1504196535.035790,0.002233,0.383103,1.538103,-0.015232,-0.141917,-0.030462,0.002071,-0.373800,-0.927507,0.068379,-0.043299,0.037431,12.801943,-2.012769,-30.494751,,,,,,,
1504196535.045800,0.000684,0.382921,1.537677,-0.019739,-0.179163,-0.042145,0.000635,-0.373632,-0.927577,0.067130,-0.035655,0.033076,12.801943,-2.012769,-30.494751,,,,,,,
1504196535.055779,0.000366,0.383330,1.536656,-0.038022,-0.200305,-0.044288,0.000340,-0.374011,-0.927424,0.060574,-0.029126,0.016200,12.352098,-2.164487,-30.644745,,,,,,,
1504196535.065788,-0.001571,0.382730,1.536194,-0.065887,-0.213931,-0.041110,-0.001457,-0.373454,-0.927647,0.062370,-0.029683,0.016423,12.352098,-2.164487,-30.644745,,,,,,,
1504196535.075797,-0.003609,0.381916,1.535864,-0.085182,-0.215919,-0.026196,-0.003349,-0.372699,-0.927946,0.055335,-0.032910,0.015089,12.427202,-2.164304,-30.569550,,,,,,,
1504196535.085807,-0.005730,0.380919,1.535760,-0.105548,-0.213643,-0.003820,-0.005319,-0.371773,-0.928308,0.051828,-0.035529,0.017008,12.427202,-2.164304,-30.569550,,,,,,,
1504196535.095817,-0.007803,0.379777,1.535773,-0.117238,-0.203963,0.002547,-0.007247,-0.370713,-0.928719,0.046035,-0.034285,0.021126,12.727663,-2.163556,-30.268799,,,,,,,
1504196535.105827,-0.008848,0.379191,1.535486,-0.101944,-0.165711,-0.006039,-0.008220,-0.370169,-0.928928,0.027858,-0.016656,0.017337,12.727663,-2.163556,-30.268799,,,,,,,
1504196535.115837,-0.010186,0.378374,1.535234,-0.075978,-0.136062,-0.030597,-0.009465,-0.369410,-0.929218,0.035512,-0.041952,0.022236,12.202318,-2.165463,-30.495087,,,,,,,
1504196535.125846,-0.011352,0.377631,1.534603,-0.076932,-0.144541,-0.066875,-0.010552,-0.368720,-0.929481,0.064766,-0.110971,0.050895,12.202318,-2.165463,-30.495087,,,,,,,
1504196535.135856,-0.012606,0.376765,1.533648,-0.090847,-0.166777,-0.093545,-0.011721,-0.367914,-0.929786,0.071841,-0.127783,0.052406,11.977022,-2.091321,-30.571228,,,,,,,
1504196535.145866,-0.012118,0.378208,1.531980,-0.099424,-0.173083,-0.087161,-0.011262,-0.369256,-0.929260,0.073487,-0.095084,0.036971,11.977022,-2.091321,-30.571228,,,,,,,
1504196535.155876,-0.013525,0.377269,1.531270,-0.092030,-0.162521,-0.055145,-0.012574,-0.368383,-0.929589,0.065857,-0.064769,0.036767,11.976610,-2.016019,-30.721832,,,,,,,
1504196535.165885,-0.014829,0.376585,1.531068,-0.059994,-0.127672,-0.004983,-0.013790,-0.367747,-0.929824,0.060314,-0.066152,0.037886,11.976610,-2.016019,-30.721832,,,,,,,
1504196535.175895,-0.016050,0.376220,1.531399,-0.029101,-0.104532,0.041996,-0.014926,-0.367407,-0.929940,0.058078,-0.061868,0.040017,11.900545,-1.641217,-30.799805,,,,,,,
1504196535.185905,-0.015955,0.377582,1.531564,-0.029156,-0.100277,0.065459,-0.014831,-0.368674,-0.929440,0.050750,-0.052270,0.044980,11.900545,-1.641217,-30.799805,,,,,,,
1504196535.195915,-0.016957,0.377110,1.532300,-0.052365,-0.065989,0.067494,-0.015764,-0.368236,-0.929599,0.054278,-0.044545,0.040149,11.975588,-1.790433,-31.023499,,,,,,,
1504196535.205924,-0.017563,0.376365,1.532954,-0.081851,-0.022049,0.059893,-0.016333,-0.367542,-0.929863,0.051504,-0.018124,0.029763,11.975588,-1.790433,-31.023499,,,,,,,
1504196535.215934,-0.017592,0.375344,1.533441,-0.105920,0.026120,0.042688,-0.016367,-0.366592,-0.930238,0.065241,-0.061051,0.038239,11.675295,-1.716626,-31.099823,,,,,,,
1504196535.225944,-0.015249,0.377024,1.533107,-0.123691,0.062527,0.037239,-0.014178,-0.368155,-0.929656,0.072253,-0.108133,0.042877,11.675295,-1.716626,-31.099823,,,,,,,
1504196535.235954,-0.014758,0.375578,1.533478,-0.151443,0.061689,0.038260,-0.013729,-0.366810,-0.930195,0.075481,-0.121609,0.046070,11.750292,-1.716290,-31.099640,,,,,,,
1504196535.245964,-0.014434,0.373872,1.533949,-0.175112,0.043757,0.048925,-0.013437,-0.365223,-0.930823,0.068475,-0.100185,0.042609,11.750292,-1.716290,-31.099640,,,,,,,
1504196535.255973,-0.014316,0.372094,1.534562,-0.175289,0.030956,0.063891,-0.013336,-0.363567,-0.931473,0.069213,-0.083958,0.038482,11.450747,-1.718228,-30.800354,,,,,,,
1504196535.265983,-0.012367,0.372660,1.534579,-0.172195,0.019223,0.074573,-0.011518,-0.364094,-0.931291,0.072431,-0.080410,0.043580,11.450747,-1.718228,-30.800354,,,,,,,
1504196535.275993,-0.012490,0.370996,1.535387,-0.161568,0.015935,0.077800,-0.011640,-0.362544,-0.931894,0.071408,-0.078877,0.047205,11.975023,-1.565427,-31.025177,,,,,,,
1504196535.286003,-0.012621,0.369487,1.536231,-0.145542,0.020064,0.079955,-0.011768,-0.361137,-0.932439,0.069523,-0.079690,0.045170,11.975023,-1.565427,-31.025177,,,,,,,
1504196535.296012,-0.012600,0.368283,1.537079,-0.110182,0.038953,0.079983,-0.011754,-0.360014,-0.932873,0.068212,-0.076510,0.041821,11.974764,-1.415570,-30.951324,,,,,,,
1504196535.306022,-0.010569,0.369499,1.537254,-0.086348,0.072888,0.069276,-0.009856,-0.361148,-0.932456,0.058791,-0.072873,0.038932,11.974764,-1.415570,-30.951324,,,,,,,
1504196535.316032,-0.009782,0.368713,1.537788,-0.077413,0.106941,0.043614,-0.009125,-0.360415,-0.932747,0.053192,-0.075712,0.040383,12.124605,-1.489453,-31.175385,,,,,,,
1504196535.326042,-0.008625,0.367890,1.538035,-0.084588,0.128337,0.019014,-0.008048,-0.359648,-0.933053,0.057990,-0.076952,0.037927,12.124605,-1.489453,-31.175385,,,,,,,
1504196535.336051,-0.005628,0.369152,1.537529,-0.099457,0.127424,0.011503,-0.005249,-0.360825,-0.932619,0.060257,-0.078338,0.033418,12.199312,-1.413968,-31.250763,,,,,,,
1504196535.346061,-0.002929,0.370481,1.537065,-0.116748,0.096683,0.014716,-0.002730,-0.362063,-0.932149,0.059905,-0.091580,0.031301,12.199312,-1.413968,-31.250763,,,,,,,
1504196535.356071,-0.000852,0.371836,1.536713,-0.121446,0.043452,0.024396,-0.000794,-0.363327,-0.931661,0.058106,-0.100358,0.027410,12.123369,-1.039304,-31.253754,,,,,,,
1504196535.366081,-0.001012,0.370670,1.537044,-0.115582,-0.018410,0.033054,-0.000943,-0.362240,-0.932085,0.056974,-0.097904,0.017534,12.123369,-1.039304,-31.253754,,,,,,,
1504196535.376090,-0.001762,0.369546,1.537369,-0.110709,-0.078120,0.029966,-0.001643,-0.361192,-0.932490,0.056972,-0.095305,0.014445,12.198412,-1.188519,-31.477448,,,,,,,
1504196535.386070,-0.002983,0.368537,1.537683,-0.097163,-0.118725,0.030061,-0.002783,-0.360251,-0.932851,0.059363,-0.092966,0.011404,12.198412,-1.188519,-31.477448,,,,,,,
1504196535.396079,-0.002940,0.369780,1.537524,-0.086508,-0.123060,0.033278,-0.002741,-0.361411,-0.932403,0.053766,-0.092035,0.000411,12.422945,-0.962659,-31.403564,,,,,,,
1504196535.406089,-0.003046,0.371039,1.537509,-0.079853,-0.094331,0.035367,-0.002839,-0.362584,-0.931947,0.040787,-0.093532,-0.005843,12.422945,-0.962659,-31.403564,,,,,,,
1504196535.416099,-0.002887,0.372350,1.537578,-0.074044,-0.040020,0.034209,-0.002689,-0.363806,-0.931471,0.034015,-0.095987,-0.008516,12.497881,-1.111722,-31.702271,,,,,,,
1504196535.426109,-0.002795,0.371656,1.537851,-0.068018,0.039862,0.023405,-0.002604,-0.363159,-0.931723,0.023585,-0.097473,-0.015176,12.497881,-1.111722,-31.702271,,,,,,,
1504196535.436119,-0.001751,0.371056,1.537968,-0.057612,0.130369,0.007252,-0.001632,-0.362600,-0.931943,0.011062,-0.096445,-0.021838,12.272081,-0.663175,-31.481201,,,,,,,
1504196535.446128,0.000161,0.370533,1.538027,-0.048424,0.211280,0.006058,0.000150,-0.362112,-0.932135,0.008547,-0.096170,-0.022883,12.272081,-0.663175,-31.481201,,,,,,,
1504196535.456138,0.002835,0.372082,1.538157,-0.023562,0.261141,0.027364,0.002641,-0.363556,-0.931569,0.008070,-0.094910,-0.030040,12.346712,-0.737088,-31.855469,,,,,,,
1504196535.466148,0.005341,0.372163,1.538755,0.017962,0.273548,0.064773,0.004975,-0.363631,-0.931530,0.005142,-0.094956,-0.043675,12.346712,-0.737088,-31.855469,,,,,,,
1504196535.476158,0.007628,0.372592,1.539678,0.050768,0.257265,0.092611,0.007105,-0.364031,-0.931360,-0.001627,-0.095625,-0.053366,12.496828,-0.736569,-31.780090,,,,,,,
1504196535.486167,0.009606,0.373287,1.540639,0.071870,0.222999,0.085236,0.008945,-0.364679,-0.931091,-0.006579,-0.097846,-0.057984,12.496828,-0.736569,-31.780090,,,,,,,
1504196535.496177,0.011363,0.375834,1.541092,0.087851,0.178180,0.023438,0.010569,-0.367048,-0.930142,0.001455,-0.102968,-0.062397,12.646898,-0.810742,-31.854156,,,,,,,
1504196535.506187,0.012953,0.376982,1.540813,0.125209,0.139578,-0.041541,0.012043,-0.368116,-0.929702,0.014965,-0.104540,-0.060685,12.646898,-0.810742,-31.854156,,,,,,,
1504196535.516197,0.014360,0.378614,1.539940,0.178473,0.098697,-0.090477,0.013342,-0.369633,-0.929082,0.024621,-0.087780,-0.049388,12.721178,-0.659955,-32.080109,,,,,,,
1504196535.526206,0.015501,0.380904,1.538625,0.249804,0.055526,-0.128704,0.014389,-0.371760,-0.928218,0.028107,-0.117590,-0.033666,12.721178,-0.659955,-32.080109,,,,,,,
1504196535.536216,0.017277,0.386590,1.536622,0.332116,0.045309,-0.168038,0.016001,-0.377032,-0.926062,0.025716,-0.131162,-0.038110,12.872271,-0.959729,-31.852478,,,,,,,
1504196535.546226,0.018629,0.390499,1.534435,0.415583,0.054248,-0.203134,0.017226,-0.380650,-0.924559,0.024675,-0.118068,-0.042910,12.872271,-0.959729,-31.852478,,,,,,,
1504196535.556236,0.020143,0.395215,1.532038,0.494622,0.058935,-0.212611,0.018589,-0.385007,-0.922727,0.022258,-0.097995,-0.047473,12.947237,-1.034101,-32.001740,,,,,,,
1504196535.566245,0.021614,0.400666,1.529751,0.564916,0.056204,-0.192204,0.019901,-0.390032,-0.920586,0.013516,-0.071867,-0.062156,12.947237,-1.034101,-32.001740,,,,,,,
1504196535.576255,0.022896,0.406815,1.527699,0.613797,0.045122,-0.169684,0.021026,-0.395687,-0.918145,-0.000548,-0.054036,-0.082389,12.947344,-1.258496,-32.300049,,,,,,,
1504196535.586265,0.024071,0.413153,1.525813,0.643569,0.041664,-0.154683,0.022043,-0.401499,-0.915594,-0.019602,-0.036657,-0.095179,12.947344,-1.258496,-32.300049,,,,,,,
1504196535.596275,0.025292,0.419603,1.523981,0.647901,0.052280,-0.150424,0.023096,-0.407398,-0.912959,-0.031671,-0.008617,-0.100881,13.172304,-1.107938,-32.075623,,,,,,,
1504196535.606285,0.026370,0.425721,1.522252,0.634066,0.056655,-0.151521,0.024013,-0.412978,-0.910425,-0.059887,0.032591,-0.100516,13.172304,-1.107938,-32.075623,,,,,,,
1504196535.616294,0.027696,0.431694,1.520242,0.588196,0.044268,-0.172927,0.025152,-0.418410,-0.907910,-0.061025,0.038024,-0.103031,13.173250,-1.482938,-32.072815,,,,,,,
1504196535.626304,0.028872,0.437153,1.517874,0.538992,0.007413,-0.207104,0.026154,-0.423362,-0.905583,-0.074005,0.057868,-0.102992,13.173250,-1.482938,-32.072815,,,,,,,
1504196535.636314,0.029699,0.442197,1.515136,0.504566,-0.048746,-0.240154,0.026838,-0.427926,-0.903415,-0.081388,0.078866,-0.105191,13.473589,-1.706296,-32.220367,,,,,,,
1504196535.646324,0.030050,0.446981,1.512060,0.480707,-0.115652,-0.269964,0.027094,-0.432246,-0.901349,-0.091013,0.096659,-0.098178,13.473589,-1.706296,-32.220367,,,,,,,
1504196535.656333,0.028196,0.449540,1.509397,0.451594,-0.170808,-0.304060,0.025392,-0.434551,-0.900289,-0.098451,0.108425,-0.081812,13.474382,-1.931592,-32.068695,,,,,,,
1504196535.666343,0.027887,0.453720,1.505634,0.419499,-0.200349,-0.333950,0.025062,-0.438312,-0.898473,-0.101127,0.122318,-0.073664,13.474382,-1.931592,-32.068695,,,,,,,
1504196535.676353,0.027634,0.457526,1.501584,0.379050,-0.203188,-0.357498,0.024789,-0.441730,-0.896806,-0.101556,0.136279,-0.070541,13.324831,-2.157117,-32.142365,,,,,,,
1504196535.686363,0.027512,0.460807,1.497376,0.322616,-0.196317,-0.369350,0.024639,-0.444671,-0.895355,-0.101620,0.145843,-0.057831,13.324831,-2.157117,-32.142365,,,,,,,
1504196535.696372,0.027510,0.463427,1.493187,0.256548,-0.184055,-0.366283,0.024605,-0.447016,-0.894188,-0.102425,0.150141,-0.048195,13.474611,-2.156140,-32.291992,,,,,,,
1504196535.706382,0.027614,0.465386,1.489042,0.189419,-0.172890,-0.363186,0.024674,-0.448768,-0.893308,-0.110657,0.149482,-0.043185,13.474611,-2.156140,-32.291992,,,,,,,
1504196535.716361,0.027781,0.466755,1.484959,0.133980,-0.164979,-0.359026,0.024806,-0.449991,-0.892689,-0.116450,0.150781,-0.034420,13.549456,-2.230359,-32.516266,,,,,,,
1504196535.726371,0.027943,0.467703,1.480950,0.095533,-0.165734,-0.352687,0.024939,-0.450837,-0.892258,-0.117422,0.154175,-0.021347,13.549456,-2.230359,-32.516266,,,,,,,
1504196535.736381,0.028037,0.468381,1.477104,0.072007,-0.162360,-0.336723,0.025014,-0.451442,-0.891950,-0.116124,0.158443,-0.005237,13.624636,-2.080777,-32.142181,,,,,,,
1504196535.746391,0.028184,0.468857,1.473501,0.051799,-0.139841,-0.313315,0.025139,-0.451867,-0.891731,-0.120278,0.162743,0.013969,13.624636,-2.080777,-32.142181,,,,,,,
1504196535.756401,0.028602,0.469084,1.470156,0.024305,-0.097010,-0.294225,0.025509,-0.452070,-0.891618,-0.122692,0.157026,0.029481,13.323702,-1.931363,-32.519073,,,,,,,
1504196535.766410,0.029442,0.468965,1.466970,-0.013774,-0.047692,-0.281569,0.026259,-0.451963,-0.891650,-0.120925,0.146238,0.043506,13.323702,-1.931363,-32.519073,,,,,,,
1504196535.776420,0.030680,0.468425,1.463863,-0.056123,-0.004722,-0.278516,0.027371,-0.451482,-0.891860,-0.112606,0.137807,0.053360,13.473467,-1.930402,-32.668701,,,,,,,
1504196535.786430,0.032297,0.467529,1.460816,-0.085729,0.032811,-0.272229,0.028826,-0.450682,-0.892219,-0.104921,0.129209,0.062446,13.473467,-1.930402,-32.668701,,,,,,,
1504196535.796440,0.034047,0.466553,1.457919,-0.088902,0.045609,-0.257313,0.030402,-0.449810,-0.892607,-0.093055,0.121182,0.071638,13.548357,-1.929914,-32.743530,,,,,,,
1504196535.806449,0.035504,0.465554,1.455194,-0.091383,0.011515,-0.242314,0.031719,-0.448918,-0.893010,-0.085674,0.112080,0.089528,13.548357,-1.929914,-32.743530,,,,,,,
1504196535.816459,0.036263,0.464522,1.452713,-0.095234,-0.054546,-0.217654,0.032413,-0.447996,-0.893448,-0.077366,0.103437,0.102737,13.997225,-1.477887,-32.745789,,,,,,,
1504196535.826469,0.036194,0.463482,1.450516,-0.098005,-0.119550,-0.194061,0.032368,-0.447065,-0.893915,-0.064641,0.094221,0.102351,13.997225,-1.477887,-32.745789,,,,,,,
1504196535.836479,0.035593,0.462391,1.448525,-0.104762,-0.154674,-0.179067,0.031849,-0.446089,-0.894422,-0.059986,0.082426,0.098157,13.546816,-1.404614,-32.897461,,,,,,,
1504196535.846488,0.034760,0.461196,1.446659,-0.116656,-0.168439,-0.169457,0.031122,-0.445019,-0.894980,-0.055399,0.071835,0.098227,13.546816,-1.404614,-32.897461,,,,,,,
1504196535.856498,0.033852,0.459846,1.444768,-0.133766,-0.177881,-0.176942,0.030329,-0.443811,-0.895607,-0.054118,0.061578,0.099480,13.395754,-1.030133,-32.975647,,,,,,,
1504196535.866508,0.032914,0.458279,1.442677,-0.154023,-0.189413,-0.198304,0.029513,-0.442405,-0.896330,-0.056612,0.053108,0.102094,13.395754,-1.030133,-32.975647,,,,,,,
1504196535.876518,0.031958,0.456579,1.440382,-0.165719,-0.195692,-0.216460,0.028680,-0.440880,-0.897108,-0.055444,0.046273,0.099271,13.170763,-1.031140,-32.976196,,,,,,,
1504196535.886527,0.031023,0.454748,1.437914,-0.179574,-0.203021,-0.231414,0.027866,-0.439236,-0.897939,-0.053684,0.036847,0.098333,13.170763,-1.031140,-32.976196,,,,,,,
1504196535.896537,0.030101,0.452653,1.435229,-0.210478,-0.212334,-0.253867,0.027065,-0.437353,-0.898883,-0.056789,0.028737,0.104556,13.544481,-0.654004,-33.203094,,,,,,,
1504196535.906547,0.029151,0.450136,1.432284,-0.256346,-0.225784,-0.277405,0.026244,-0.435088,-0.900006,-0.060896,0.016295,0.093899,13.544481,-0.654004,-33.203094,,,,,,,
1504196535.916557,0.028279,0.447105,1.429167,-0.308502,-0.218946,-0.291384,0.025496,-0.432357,-0.901342,-0.060148,0.013564,0.095236,13.319063,-0.579724,-33.354218,,,,,,,
1504196535.926567,0.025808,0.444240,1.426723,-0.367005,-0.203555,-0.301100,0.023301,-0.429771,-0.902637,-0.063630,0.007774,0.089344,13.319063,-0.579724,-33.354218,,,,,,,
1504196535.936576,0.025294,0.440183,1.423543,-0.406344,-0.182990,-0.295867,0.022881,-0.426105,-0.904384,-0.071221,0.002003,0.081295,13.093233,-0.205884,-33.282562,,,,,,,
1504196535.946586,0.024881,0.435865,1.420479,-0.429754,-0.167891,-0.284193,0.022553,-0.422194,-0.906225,-0.074661,-0.002015,0.073720,13.093233,-0.205884,-33.282562,,,,,,,
1504196535.956596,0.022912,0.432047,1.418224,-0.439386,-0.163581,-0.270324,0.020805,-0.418731,-0.907872,-0.072624,-0.007585,0.063146,13.091890,0.244418,-33.435944,,,,,,,
1504196535.966606,0.022401,0.427543,1.415459,-0.446952,-0.167794,-0.257521,0.020383,-0.414636,-0.909759,-0.072202,-0.011679,0.065032,13.091890,0.244418,-33.435944,,,,,,,
1504196535.976615,0.021800,0.422994,1.412833,-0.450242,-0.170977,-0.244712,0.019877,-0.410492,-0.911647,-0.066965,-0.015930,0.057216,12.715990,0.692431,-33.290253,,,,,,,
1504196535.986625,0.021044,0.418491,1.410349,-0.442887,-0.178508,-0.234012,0.019226,-0.406382,-0.913501,-0.059601,-0.024038,0.051150,12.715990,0.692431,-33.290253,,,,,,,
1504196535.996635,0.020287,0.414081,1.407882,-0.433229,-0.172193,-0.235074,0.018571,-0.402348,-0.915298,-0.057450,-0.034083,0.046325,12.938906,1.294177,-33.669189,,,,,,,
1504196536.006645,0.018036,0.411343,1.406053,-0.412643,-0.139342,-0.241479,0.016531,-0.399841,-0.916436,-0.054296,-0.040543,0.036278,12.938906,1.294177,-33.669189,,,,,,,
1504196536.016654,0.017960,0.407349,1.403461,-0.390969,-0.100089,-0.245781,0.016489,-0.396176,-0.918026,-0.054255,-0.044208,0.037869,12.563540,1.442492,-33.671265,,,,,,,
1504196536.026664,0.018196,0.403538,1.400888,-0.372621,-0.070409,-0.240464,0.016733,-0.392675,-0.919525,-0.060663,-0.049143,0.038315,12.563540,1.442492,-33.671265,,,,,,,
1504196536.036674,0.018494,0.399975,1.398413,-0.343843,-0.067460,-0.229745,0.017033,-0.389395,-0.920913,-0.060338,-0.059167,0.030303,12.412600,1.816821,-33.674438,,,,,,,
1504196536.046653,0.016471,0.399265,1.396979,-0.288477,-0.074354,-0.211464,0.015175,-0.388741,-0.921222,-0.055687,-0.066550,0.017307,12.412600,1.816821,-33.674438,,,,,,,
1504196536.056663,0.016338,0.396878,1.394935,-0.216260,-0.099486,-0.184610,0.015068,-0.386541,-0.922149,-0.050926,-0.075877,0.013381,12.261736,2.116305,-33.752075,,,,,,,
1504196536.066634,0.015737,0.395219,1.393224,-0.146282,-0.135259,-0.153471,0.014523,-0.385010,-0.922798,-0.039990,-0.082885,0.016121,12.261736,2.116305,-33.752075,,,,,,,
1504196536.076644,0.014735,0.394212,1.391786,-0.083665,-0.161375,-0.128766,0.013604,-0.384081,-0.923199,-0.035440,-0.088850,0.015851,12.335680,2.491794,-33.829681,,,,,,,
1504196536.086653,0.012138,0.396920,1.391103,-0.029467,-0.178913,-0.104072,0.011194,-0.386580,-0.922188,-0.030817,-0.090150,0.006874,12.335680,2.491794,-33.829681,,,,,,,
1504196536.096663,0.010642,0.396870,1.390143,0.002361,-0.188787,-0.083719,0.009814,-0.386534,-0.922223,-0.025699,-0.093111,0.008542,11.960375,2.565249,-33.906219,,,,,,,
1504196536.106673,0.009049,0.396924,1.389361,0.005496,-0.187763,-0.068772,0.008345,-0.386583,-0.922217,-0.024428,-0.101317,0.008322,11.960375,2.565249,-33.906219,,,,,,,
1504196536.116683,0.007538,0.396904,1.388673,-0.004010,-0.171707,-0.062412,0.006952,-0.386565,-0.922236,-0.021249,-0.113618,-0.001135,11.884737,2.864764,-33.833618,,,,,,,
1504196536.126692,0.005646,0.400629,1.388238,-0.004646,-0.129083,-0.068879,0.005199,-0.389998,-0.920801,-0.017909,-0.120653,-0.011221,11.884737,2.864764,-33.833618,,,,,,,
1504196536.136702,0.005174,0.400679,1.387349,0.010890,-0.064193,-0.084977,0.004765,-0.390043,-0.920784,-0.020329,-0.122713,-0.019722,11.433916,3.013339,-34.135895,,,,,,,
1504196536.146712,0.005432,0.401044,1.386417,0.046679,0.009038,-0.083977,0.005001,-0.390379,-0.920640,-0.020779,-0.114854,-0.023360,11.433916,3.013339,-34.135895,,,,,,,
1504196536.156722,0.006196,0.401813,1.385656,0.087497,0.056632,-0.062642,0.005702,-0.391088,-0.920336,-0.021221,-0.104746,-0.021895,11.584246,3.013568,-33.910522,,,,,,,
1504196536.166731,0.006124,0.405940,1.385563,0.130211,0.072223,-0.035896,0.005626,-0.394883,-0.918714,-0.024181,-0.098815,-0.023409,11.584246,3.013568,-33.910522,,,,,,,
1504196536.176741,0.006896,0.407604,1.385416,0.178060,0.071796,-0.003791,0.006331,-0.396411,-0.918051,-0.022658,-0.098019,-0.033136,11.583269,3.313876,-34.062775,,,,,,,
1504196536.186751,0.007362,0.409658,1.385657,0.212912,0.049095,0.031534,0.006753,-0.398295,-0.917232,-0.015496,-0.091405,-0.041218,11.583269,3.313876,-34.062775,,,,,,,
1504196536.196761,0.007317,0.411944,1.386222,0.230560,0.005231,0.059395,0.006704,-0.400391,-0.916320,-0.010031,-0.083312,-0.041871,11.808199,3.165484,-34.361115,,,,,,,
1504196536.206770,0.006601,0.415971,1.387020,0.223839,-0.030960,0.071192,0.006038,-0.404078,-0.914704,-0.003291,-0.077550,-0.052535,11.808199,3.165484,-34.361115,,,,,,,
1504196536.216780,0.005956,0.418055,1.387785,0.201440,-0.030774,0.070086,0.005443,-0.405984,-0.913864,0.001149,-0.074744,-0.065293,11.433123,3.238650,-34.287567,,,,,,,
1504196536.226790,0.005514,0.419831,1.388512,0.168566,-0.007058,0.067852,0.005036,-0.407606,-0.913144,0.003479,-0.073839,-0.074741,11.433123,3.238650,-34.287567,,,,,,,
1504196536.236800,0.005509,0.421242,1.389351,0.131580,0.047576,0.083703,0.005027,-0.408894,-0.912568,-0.004249,-0.069942,-0.083404,11.658190,3.164813,-34.361481,,,,,,,
1504196536.246810,0.005612,0.423538,1.390767,0.106204,0.105271,0.133729,0.005116,-0.410988,-0.911626,-0.007161,-0.074821,-0.083491,11.658190,3.164813,-34.361481,,,,,,,
1504196536.256819,0.006171,0.424676,1.392861,0.118999,0.154100,0.213720,0.005623,-0.412025,-0.911155,-0.017540,-0.076118,-0.086556,11.657900,3.239963,-34.437012,,,,,,,
1504196536.266829,0.006638,0.426258,1.396090,0.170982,0.185526,0.323697,0.006044,-0.413466,-0.910499,-0.027635,-0.071962,-0.091377,11.657900,3.239963,-34.437012,,,,,,,
1504196536.276839,0.006527,0.428535,1.400579,0.243889,0.167757,0.438067,0.005937,-0.415539,-0.909556,-0.031968,-0.074238,-0.086507,12.107546,3.242419,-34.660919,,,,,,,
1504196536.286849,0.005384,0.431544,1.406184,0.313296,0.099955,0.532238,0.004891,-0.418274,-0.908308,-0.036797,-0.072647,-0.085009,12.107546,3.242419,-34.660919,,,,,,,
1504196536.296858,0.003079,0.435076,1.412474,0.360367,0.012138,0.580508,0.002792,-0.421479,-0.906834,-0.037857,-0.070098,-0.101223,11.882936,3.091418,-34.660339,,,,,,,
1504196536.306868,-0.000082,0.438895,1.418751,0.385422,-0.070097,0.559348,-0.000074,-0.424939,-0.905222,-0.038043,-0.065936,-0.121267,11.882936,3.091418,-34.660339,,,,,,,
1504196536.316878,-0.003531,0.442684,1.424370,0.375829,-0.114697,0.485760,-0.003191,-0.428367,-0.903599,-0.035750,-0.056222,-0.138423,11.883013,3.016559,-34.734802,,,,,,,
1504196536.326888,-0.006703,0.446241,1.428958,0.350672,-0.119716,0.387524,-0.006046,-0.431578,-0.902056,-0.016735,-0.014391,-0.159514,11.883013,3.016559,-34.734802,,,,,,,
1504196536.336897,-0.009248,0.449467,1.432643,0.316111,-0.085254,0.312685,-0.008330,-0.434486,-0.900640,-0.014452,-0.011483,-0.160929,11.658571,2.790545,-34.733643,,,,,,,
1504196536.346907,-0.011113,0.452200,1.435853,0.262265,-0.033629,0.281546,-0.009996,-0.436946,-0.899432,-0.002211,0.015773,-0.167188,11.658571,2.790545,-34.733643,,,,,,,
1504196536.356917,-0.012473,0.454357,1.439014,0.203974,0.015867,0.282425,-0.011207,-0.438884,-0.898474,0.011406,0.045375,-0.165384,11.508577,2.789874,-34.734039,,,,,,,
1504196536.366927,-0.013408,0.456046,1.442368,0.164792,0.067315,0.305749,-0.012037,-0.440402,-0.897720,0.021834,0.081271,-0.164475,11.508577,2.789874,-34.734039,,,,,,,
1504196536.376906,-0.013025,0.452177,1.445798,0.161485,0.103521,0.367576,-0.011716,-0.436925,-0.899422,0.029233,0.118504,-0.150551,11.433458,2.789691,-34.809204,,,,,,,
1504196536.386916,-0.014215,0.453885,1.450635,0.183318,0.085137,0.453038,-0.012775,-0.438460,-0.898660,0.033939,0.143477,-0.125129,11.433458,2.789691,-34.809204,,,,,,,
1504196536.396925,-0.016193,0.456001,1.456220,0.232783,0.034589,0.508718,-0.014538,-0.440362,-0.897703,0.018353,0.156807,-0.103884,11.508532,2.715182,-34.883453,,,,,,,
1504196536.406935,-0.018854,0.458761,1.461981,0.300584,-0.027771,0.505743,-0.016903,-0.442837,-0.896443,0.012433,0.169415,-0.093410,11.508532,2.715182,-34.883453,,,,,,,
1504196536.416945,-0.021190,0.455121,1.466850,0.364288,-0.094286,0.438716,-0.019032,-0.439571,-0.898006,0.018101,0.177517,-0.065419,11.433504,2.640140,-35.033081,,,,,,,
