timestamp(unix),attitude_roll(radians),attitude_pitch(radians),attitude_yaw(radians),rotation_rate_x(radians/s),rotation_rate_y(radians/s),rotation_rate_z(radians/s),gravity_x(G),gravity_y(G),gravity_z(G),user_acc_x(G),user_acc_y(G),user_acc_z(G),magnetic_field_x(microteslas),magnetic_field_y(microteslas),magnetic_field_z(microteslas),latitude(degree),longitude(degree),altitude(meter),speed(m/s),course(degree),timestamp(unix),User Mark
1504196729.602006,-0.007156,0.332240,-2.745211,-0.018669,0.147325,0.082840,-0.006765,-0.326162,-0.945290,-0.049998,-0.029734,0.009773,14.155504,-4.104459,-31.600677,,,,,,,
1504196729.612015,-0.006350,0.332685,-2.744324,0.065196,0.094419,0.083079,-0.006002,-0.326582,-0.945150,-0.044902,-0.033998,0.013433,14.155504,-4.104459,-31.600677,,,,,,,
1504196729.622025,-0.007155,0.334483,-2.743189,0.118105,0.032183,0.072610,-0.006758,-0.328281,-0.944556,-0.044054,-0.029904,0.015204,14.230059,-4.103528,-31.900482,,,,,,,
1504196729.632035,-0.007396,0.335835,-2.742583,0.139179,-0.014854,0.050314,-0.006982,-0.329558,-0.944109,-0.038992,-0.028215,0.012423,14.230059,-4.103528,-31.900482,,,,,,,
1504196729.642045,-0.008781,0.337889,-2.742043,0.130636,-0.041390,0.010856,-0.008284,-0.331496,-0.943420,-0.040514,-0.029969,0.010773,14.381304,-4.328748,-31.448456,,,,,,,
1504196729.652054,-0.010016,0.339785,-2.741900,0.114729,-0.048693,-0.019043,-0.009444,-0.333284,-0.942779,-0.034700,-0.031813,0.006240,14.381304,-4.328748,-31.448456,,,,,,,
1504196729.662064,-0.010938,0.341608,-2.742016,0.097990,-0.020835,-0.039401,-0.010305,-0.335003,-0.942161,-0.033503,-0.037296,0.003409,14.005739,-4.105435,-31.451050,,,,,,,
1504196729.672074,-0.011490,0.343356,-2.742227,0.081304,0.020862,-0.048041,-0.010819,-0.336649,-0.941568,-0.037200,-0.041326,0.005426,14.005739,-4.105435,-31.451050,,,,,,,
1504196729.682084,-0.011734,0.344889,-2.742457,0.056993,0.047696,-0.049196,-0.011043,-0.338093,-0.941048,-0.037541,-0.041393,0.008065,14.080843,-4.105252,-31.375854,,,,,,,
1504196729.692093,-0.011739,0.346173,-2.742689,0.031630,0.075605,-0.051423,-0.011042,-0.339300,-0.940613,-0.039587,-0.043177,0.005707,14.080843,-4.105252,-31.375854,,,,,,,
1504196729.702103,-0.011375,0.347209,-2.743042,0.012758,0.108799,-0.063253,-0.010696,-0.340274,-0.940265,-0.039445,-0.041882,0.004841,14.231234,-4.254575,-31.374359,,,,,,,
1504196729.712113,-0.010617,0.348113,-2.743552,0.011942,0.131190,-0.076101,-0.009980,-0.341125,-0.939965,-0.036162,-0.036988,0.007973,14.231234,-4.254575,-31.374359,,,,,,,
1504196729.722123,-0.009782,0.348995,-2.744140,0.028015,0.134256,-0.083547,-0.009192,-0.341954,-0.939672,-0.037241,-0.029460,0.009557,14.156710,-4.180814,-30.925140,,,,,,,
1504196729.732133,-0.009026,0.350067,-2.744798,0.065161,0.108371,-0.084502,-0.008479,-0.342961,-0.939312,-0.032720,-0.024303,0.006603,14.156710,-4.180814,-30.925140,,,,,,,
1504196729.742142,-0.008533,0.351496,-2.745447,0.113869,0.065335,-0.077935,-0.008011,-0.344303,-0.938825,-0.026382,-0.019452,0.003476,14.081408,-4.330258,-31.374176,,,,,,,
1504196729.752152,-0.008547,0.353221,-2.746046,0.156018,0.004236,-0.069212,-0.008020,-0.345921,-0.938229,-0.021033,-0.010204,0.006909,14.081408,-4.330258,-31.374176,,,,,,,
1504196729.762162,-0.009046,0.355167,-2.746573,0.182164,-0.054602,-0.057320,-0.008482,-0.347747,-0.937550,-0.014025,-0.007188,0.002934,14.156374,-4.180356,-31.150116,,,,,,,
1504196729.772172,-0.009891,0.357222,-2.747017,0.187187,-0.088767,-0.047639,-0.009266,-0.349673,-0.936826,-0.008938,-0.007856,0.001249,14.156374,-4.180356,-31.150116,,,,,,,
1504196729.782181,-0.010966,0.359240,-2.747368,0.174163,-0.109984,-0.036950,-0.010266,-0.351563,-0.936108,-0.006656,-0.009155,0.004712,14.156527,-4.330060,-31.299011,,,,,,,
1504196729.792191,-0.012131,0.360981,-2.747574,0.141013,-0.109729,-0.020997,-0.011349,-0.353192,-0.935482,-0.006580,-0.009494,0.006954,14.156527,-4.330060,-31.299011,,,,,,,
1504196729.802201,-0.013229,0.362432,-2.747515,0.109073,-0.084987,0.005589,-0.012369,-0.354549,-0.934955,-0.008184,-0.011097,0.007953,14.156420,-4.329907,-31.373993,,,,,,,
1504196729.812211,-0.014137,0.363633,-2.747057,0.087983,-0.033701,0.038552,-0.013212,-0.355672,-0.934518,-0.013689,-0.011150,0.008065,14.156420,-4.329907,-31.373993,,,,,,,
1504196729.822220,-0.014508,0.364658,-2.746315,0.074682,0.048437,0.056533,-0.013553,-0.356630,-0.934147,-0.020779,-0.009535,0.010594,14.157351,-4.480664,-30.997864,,,,,,,
1504196729.832230,-0.014275,0.365454,-2.745498,0.050591,0.106171,0.059594,-0.013332,-0.357373,-0.933867,-0.022374,-0.007327,0.014769,14.157351,-4.480664,-30.997864,,,,,,,
1504196729.842240,-0.013646,0.366000,-2.744725,0.030516,0.129778,0.058452,-0.012742,-0.357883,-0.933680,-0.019668,-0.007794,0.010324,14.082323,-4.555707,-31.147491,,,,,,,
1504196729.852250,-0.012885,0.366512,-2.744018,0.034728,0.121218,0.056341,-0.012029,-0.358361,-0.933506,-0.012797,-0.009010,0.004657,14.082323,-4.555707,-31.147491,,,,,,,
1504196729.862229,-0.012309,0.367170,-2.743323,0.056913,0.093328,0.056429,-0.011488,-0.358976,-0.933276,-0.010545,-0.004824,0.011066,14.231981,-4.554578,-31.372131,,,,,,,
1504196729.872239,-0.011962,0.368131,-2.742696,0.080149,0.060107,0.051191,-0.011160,-0.359873,-0.932935,-0.007059,-0.005560,0.014966,14.231981,-4.554578,-31.372131,,,,,,,
1504196729.882248,-0.011903,0.369336,-2.742246,0.093774,0.018453,0.034209,-0.011100,-0.360996,-0.932501,-0.004372,-0.008175,0.018469,14.158251,-4.930371,-31.144470,,,,,,,
1504196729.892258,-0.012096,0.370635,-2.742005,0.089253,-0.023054,0.019328,-0.011274,-0.362208,-0.932029,0.001341,-0.011892,0.020042,14.158251,-4.930371,-31.144470,,,,,,,
1504196729.902268,-0.012575,0.371921,-2.741840,0.080544,-0.048553,0.014018,-0.011715,-0.363406,-0.931557,0.000256,-0.017408,0.016091,14.307955,-4.854535,-31.219696,,,,,,,
1504196729.912278,-0.013183,0.373220,-2.741625,0.072009,-0.045294,0.020400,-0.012275,-0.364616,-0.931077,-0.003121,-0.023110,0.017472,14.307955,-4.854535,-31.219696,,,,,,,
1504196729.922288,-0.013733,0.374484,-2.741238,0.061512,-0.018581,0.029939,-0.012780,-0.365792,-0.930609,-0.009284,-0.027594,0.016500,14.007738,-4.855588,-31.370422,,,,,,,
1504196729.932297,-0.014112,0.375600,-2.740760,0.053258,0.017710,0.033063,-0.013128,-0.366831,-0.930195,-0.016825,-0.023520,0.018971,14.007738,-4.855588,-31.370422,,,,,,,
1504196729.942307,-0.014189,0.376588,-2.740244,0.046009,0.046534,0.036202,-0.013195,-0.367750,-0.929831,-0.016774,-0.020312,0.019141,14.158144,-4.930219,-31.219482,,,,,,,
1504196729.952317,-0.014182,0.377493,-2.739696,0.040749,0.055098,0.036178,-0.013183,-0.368591,-0.929498,-0.018876,-0.019577,0.018747,14.158144,-4.930219,-31.219482,,,,,,,
1504196729.962327,-0.014135,0.378233,-2.739157,0.033320,0.059418,0.036159,-0.013135,-0.369279,-0.929226,-0.019244,-0.015837,0.016155,14.382952,-4.854199,-31.219513,,,,,,,
1504196729.972336,-0.014038,0.378867,-2.738615,0.025845,0.059474,0.038282,-0.013042,-0.369868,-0.928993,-0.016759,-0.013951,0.015098,14.382952,-4.854199,-31.219513,,,,,,,
1504196729.982346,-0.013923,0.379334,-2.738095,0.006701,0.063895,0.033973,-0.012933,-0.370301,-0.928822,-0.018775,-0.014449,0.013386,14.308138,-4.929547,-31.219116,,,,,,,
1504196729.992356,-0.013778,0.379558,-2.737632,-0.016739,0.064090,0.028596,-0.012797,-0.370510,-0.928740,-0.019201,-0.014668,0.011321,14.308138,-4.929547,-31.219116,,,,,,,
1504196730.002366,-0.013641,0.379523,-2.737293,-0.043411,0.055795,0.015757,-0.012670,-0.370478,-0.928755,-0.018946,-0.016027,0.008513,14.383104,-5.003903,-31.368378,,,,,,,
1504196730.012375,-0.013607,0.379283,-2.737098,-0.062674,0.039979,0.002944,-0.012640,-0.370255,-0.928844,-0.020609,-0.018051,0.006252,14.383104,-5.003903,-31.368378,,,,,,,
1504196730.022385,-0.013715,0.378930,-2.737022,-0.070216,0.023000,-0.008779,-0.012742,-0.369926,-0.928974,-0.020370,-0.018013,0.004749,14.158190,-4.855512,-31.070068,,,,,,,
1504196730.032395,-0.013910,0.378556,-2.736986,-0.054216,0.020736,-0.010879,-0.012924,-0.369579,-0.929110,-0.022217,-0.013844,0.000154,14.158190,-4.855512,-31.070068,,,,,,,
1504196730.042405,-0.014092,0.378379,-2.736861,-0.029616,0.033307,-0.002316,-0.013095,-0.369415,-0.929172,-0.024762,-0.011292,0.000568,14.533327,-5.003537,-31.218018,,,,,,,
1504196730.052415,-0.014226,0.378406,-2.736577,-0.002929,0.044788,0.013724,-0.013219,-0.369439,-0.929161,-0.026072,-0.007239,0.002418,14.533327,-5.003537,-31.218018,,,,,,,
1504196730.062424,-0.014398,0.378675,-2.736072,0.019376,0.044580,0.034047,-0.013378,-0.369690,-0.929059,-0.025136,-0.007996,0.000379,14.608370,-4.928494,-31.068390,,,,,,,
1504196730.072434,-0.014621,0.379162,-2.735423,0.032035,0.034867,0.047965,-0.013582,-0.370142,-0.928876,-0.021391,-0.010656,0.001202,14.608370,-4.928494,-31.068390,,,,,,,
1504196730.082444,-0.014987,0.379673,-2.734730,0.028668,0.015707,0.051197,-0.013919,-0.370616,-0.928682,-0.018216,-0.010808,0.004091,14.232775,-4.779874,-31.220428,,,,,,,
1504196730.092454,-0.015413,0.380102,-2.734120,0.017898,-0.001249,0.044805,-0.014312,-0.371015,-0.928517,-0.013474,-0.011492,0.003712,14.232775,-4.779874,-31.220428,,,,,,,
1504196730.102463,-0.015866,0.380336,-2.733713,-0.001355,-0.018125,0.027723,-0.014731,-0.371232,-0.928423,-0.008965,-0.009932,0.004702,14.383287,-4.854657,-30.994507,,,,,,,
1504196730.112473,-0.016313,0.380332,-2.733478,-0.020555,-0.026478,0.013829,-0.015146,-0.371228,-0.928418,-0.006292,-0.007861,0.002530,14.383287,-4.854657,-30.994507,,,,,,,
1504196730.122483,-0.016805,0.380169,-2.733376,-0.039696,-0.027374,-0.000078,-0.015604,-0.371078,-0.928471,-0.010046,-0.009812,0.002720,14.456865,-4.329160,-31.073273,,,,,,,
1504196730.132493,-0.017236,0.379827,-2.733337,-0.058737,-0.011229,-0.006543,-0.016007,-0.370760,-0.928591,-0.014572,-0.011167,0.002855,14.456865,-4.329160,-31.073273,,,,,,,
1504196730.142502,-0.017420,0.379402,-2.733279,-0.078660,0.030492,-0.008784,-0.016181,-0.370365,-0.928745,-0.020272,-0.015865,0.006977,14.307695,-4.704694,-31.145813,,,,,,,
1504196730.152512,-0.017200,0.378902,-2.733185,-0.093223,0.078556,-0.005690,-0.015980,-0.369901,-0.928934,-0.024410,-0.019137,0.013178,14.307695,-4.704694,-31.145813,,,,,,,
1504196730.162522,-0.016626,0.378422,-2.732982,-0.080194,0.113597,0.006014,-0.015449,-0.369455,-0.929120,-0.024651,-0.018317,0.009641,14.457766,-4.778867,-31.219879,,,,,,,
1504196730.172532,-0.015941,0.378151,-2.732682,-0.053540,0.116560,0.015663,-0.014814,-0.369203,-0.929231,-0.023150,-0.016616,0.009843,14.457766,-4.778867,-31.219879,,,,,,,
1504196730.182541,-0.015400,0.378109,-2.732363,-0.024986,0.086481,0.018970,-0.014312,-0.369164,-0.929254,-0.018433,-0.012473,0.009988,14.457689,-4.704022,-31.145416,,,,,,,
1504196730.192551,-0.015206,0.378238,-2.732101,0.005576,0.036148,0.014843,-0.014130,-0.369284,-0.929209,-0.011901,-0.008280,0.002451,14.457689,-4.704022,-31.145416,,,,,,,
1504196730.202561,-0.015477,0.378588,-2.731973,0.037192,-0.021642,0.001125,-0.014380,-0.369609,-0.929076,-0.009912,-0.005559,-0.004594,14.307573,-4.704541,-31.220825,,,,,,,
1504196730.212571,-0.016614,0.379621,-2.732054,0.105784,-0.131940,-0.023112,-0.015431,-0.370569,-0.928677,-0.006847,-0.003043,0.000347,14.307573,-4.704541,-31.220825,,,,,,,
1504196730.222550,-0.018653,0.381135,-2.732420,0.091154,-0.238363,-0.040030,-0.017314,-0.371974,-0.928082,-0.000966,-0.007909,0.058712,14.908251,-4.926999,-31.142639,,,,,,,
1504196730.232560,-0.021179,0.382342,-2.732848,0.085582,-0.269220,-0.041054,-0.019649,-0.373094,-0.927585,0.000346,-0.008971,0.024616,14.908251,-4.926999,-31.142639,,,,,,,
1504196730.242570,-0.023780,0.383616,-2.733155,0.067692,-0.237111,-0.037939,-0.022050,-0.374276,-0.927055,-0.011306,-0.013450,0.043266,14.157808,-4.705518,-31.071198,,,,,,,
1504196730.252579,-0.025719,0.384568,-2.733325,0.030972,-0.149450,-0.021079,-0.023837,-0.375159,-0.926654,-0.012387,-0.011667,0.049442,14.157808,-4.705518,-31.071198,,,,,,,
1504196730.262589,-0.026447,0.384761,-2.733272,-0.019013,0.012913,-0.006506,-0.024511,-0.375337,-0.926564,-0.022547,-0.006926,0.020680,13.931871,-4.555783,-31.447876,,,,,,,
1504196730.272599,-0.025775,0.384337,-2.732965,-0.075328,0.184915,0.009109,-0.023892,-0.374945,-0.926739,-0.039417,-0.010675,0.005047,13.931871,-4.555783,-31.447876,,,,,,,
1504196730.282609,-0.024007,0.383247,-2.732452,-0.132235,0.284459,0.026986,-0.022263,-0.373934,-0.927188,-0.043716,-0.009092,-0.003735,14.007204,-4.555890,-31.222687,,,,,,,
1504196730.292618,-0.021815,0.381640,-2.731863,-0.179148,0.295483,0.038632,-0.020244,-0.372443,-0.927834,-0.036427,-0.012170,-0.011543,14.007204,-4.555890,-31.222687,,,,,,,
1504196730.302628,-0.019690,0.379772,-2.731399,-0.186900,0.253995,0.029088,-0.018286,-0.370709,-0.928569,-0.024637,-0.009952,-0.017171,14.382387,-4.629209,-31.221191,,,,,,,
1504196730.312638,-0.017947,0.378151,-2.731271,-0.152032,0.188741,-0.007026,-0.016678,-0.369203,-0.929199,-0.018508,-0.004851,-0.008087,14.382387,-4.629209,-31.221191,,,,,,,
1504196730.322648,-0.016759,0.377114,-2.731698,-0.092761,0.097727,-0.056929,-0.015581,-0.368239,-0.929601,-0.011793,-0.001054,0.003896,14.457506,-4.629010,-31.145996,,,,,,,
1504196730.332657,-0.016152,0.376761,-2.732613,-0.018652,0.004445,-0.090793,-0.015019,-0.367911,-0.929740,-0.007671,0.002509,0.008246,14.457506,-4.629010,-31.145996,,,,,,,
1504196730.342667,-0.016279,0.377115,-2.733680,0.049099,-0.067500,-0.099088,-0.015135,-0.368240,-0.929608,-0.012514,0.000717,0.015255,14.533113,-4.778974,-30.994690,,,,,,,
1504196730.352677,-0.016914,0.377987,-2.734638,0.095687,-0.104127,-0.086134,-0.015719,-0.369050,-0.929276,-0.016141,-0.005049,0.016847,14.533113,-4.778974,-30.994690,,,,,,,
1504196730.362687,-0.018059,0.379224,-2.735219,0.114887,-0.093652,-0.067970,-0.016775,-0.370199,-0.928801,-0.021479,-0.001978,0.011275,14.682772,-4.777860,-31.219330,,,,,,,
1504196730.372696,-0.018535,0.380412,-2.735802,0.117230,-0.059586,-0.055218,-0.017209,-0.371303,-0.928352,-0.026813,-0.001424,0.011330,14.682772,-4.777860,-31.219330,,,,,,,
1504196730.382706,-0.018589,0.381470,-2.736383,0.099451,-0.014684,-0.055328,-0.017252,-0.372285,-0.927958,-0.027670,-0.002517,0.012675,14.682467,-4.702710,-31.294891,,,,,,,
1504196730.392716,-0.018160,0.382260,-2.737022,0.068893,0.029264,-0.061862,-0.016848,-0.373018,-0.927671,-0.027906,-0.004438,0.013685,14.682467,-4.702710,-31.294891,,,,,,,
1504196730.402726,-0.018011,0.382954,-2.737573,0.036100,0.054054,-0.077970,-0.016705,-0.373662,-0.927414,-0.029880,-0.006816,0.015641,14.757540,-4.552960,-30.995819,,,,,,,
1504196730.412736,-0.017669,0.383355,-2.738364,0.008460,0.052167,-0.100427,-0.016386,-0.374034,-0.927270,-0.028140,-0.007665,0.015436,14.757540,-4.552960,-30.995819,,,,,,,
1504196730.422745,-0.017434,0.383605,-2.739379,-0.008747,0.024614,-0.116416,-0.016167,-0.374266,-0.927180,-0.026436,-0.009172,0.017299,14.682772,-4.777860,-31.219330,,,,,,,
1504196730.432755,-0.017574,0.383835,-2.740495,-0.008011,-0.021211,-0.122736,-0.016294,-0.374479,-0.927092,-0.025057,-0.007753,0.021788,14.682772,-4.777860,-31.219330,,,,,,,
1504196730.442765,-0.018114,0.384143,-2.741634,0.000210,-0.061776,-0.123715,-0.016793,-0.374765,-0.926968,-0.023917,-0.007209,0.024517,14.231722,-4.404721,-31.298248,,,,,,,
1504196730.452775,-0.019017,0.384503,-2.742670,0.009606,-0.082116,-0.114053,-0.017628,-0.375098,-0.926818,-0.026974,-0.005029,0.025176,14.231722,-4.404721,-31.298248,,,,,,,
1504196730.462784,-0.020101,0.384927,-2.743597,0.021323,-0.082224,-0.109759,-0.018629,-0.375492,-0.926638,-0.032305,-0.001782,0.026355,14.308138,-4.929547,-31.219116,,,,,,,
1504196730.472794,-0.021164,0.385403,-2.744568,0.033113,-0.081254,-0.118275,-0.019610,-0.375932,-0.926440,-0.033734,0.002000,0.028994,14.308138,-4.929547,-31.219116,,,,,,,
1504196730.482804,-0.022137,0.386031,-2.745688,0.049081,-0.092037,-0.127831,-0.020506,-0.376514,-0.926184,-0.027193,0.005131,0.032568,14.157808,-4.705518,-31.071198,,,,,,,
1504196730.492814,-0.023159,0.386827,-2.746903,0.062829,-0.110266,-0.132042,-0.021445,-0.377252,-0.925862,-0.022286,0.006036,0.035939,14.157808,-4.705518,-31.071198,,,,,,,
1504196730.502823,-0.024319,0.387676,-2.748209,0.063734,-0.134780,-0.138399,-0.022512,-0.378038,-0.925516,-0.018549,0.005846,0.036600,14.457354,-4.479306,-30.997131,,,,,,,
1504196730.512833,-0.025557,0.388356,-2.749567,0.045430,-0.153816,-0.135194,-0.023652,-0.378668,-0.925230,-0.012512,0.005819,0.033080,14.457354,-4.479306,-30.997131,,,,,,,
1504196730.522843,-0.026857,0.388781,-2.750792,0.025137,-0.147274,-0.120295,-0.024850,-0.379061,-0.925038,-0.012671,0.004671,0.025243,14.157885,-4.780362,-31.145599,,,,,,,
1504196730.532853,-0.027934,0.389054,-2.751762,0.013762,-0.089663,-0.100133,-0.025843,-0.379314,-0.924907,-0.019643,0.005046,0.024410,14.157885,-4.780362,-31.145599,,,,,,,
1504196730.542863,-0.028305,0.389199,-2.752570,-0.007977,0.000010,-0.089652,-0.026184,-0.379447,-0.924843,-0.024170,0.006354,0.034660,14.457659,-4.554456,-30.921570,,,,,,,
1504196730.552872,-0.027809,0.389003,-2.753291,-0.042484,0.090860,-0.084531,-0.025728,-0.379266,-0.924930,-0.026259,0.005975,0.031772,14.457659,-4.554456,-30.921570,,,,,,,
1504196730.562882,-0.026400,0.388354,-2.753999,-0.079213,0.172135,-0.077263,-0.024431,-0.378665,-0.925211,-0.023451,0.004520,0.019190,14.082735,-4.630994,-30.996918,,,,,,,
1504196730.572861,-0.024338,0.387338,-2.754699,-0.106520,0.225638,-0.078470,-0.022533,-0.377725,-0.925644,-0.021657,0.006402,0.014282,14.082735,-4.630994,-30.996918,,,,,,,
1504196730.582871,-0.021971,0.385920,-2.755584,-0.128816,0.229033,-0.095590,-0.020354,-0.376412,-0.926229,-0.017046,0.013131,0.008107,14.156862,-4.330518,-31.074005,,,,,,,
1504196730.592869,-0.019554,0.384336,-2.756781,-0.131044,0.202436,-0.120095,-0.018126,-0.374943,-0.926871,-0.009202,0.014973,-0.001459,14.156862,-4.330518,-31.074005,,,,,,,
1504196730.602879,-0.017359,0.382847,-2.758279,-0.120646,0.154423,-0.143474,-0.016102,-0.373563,-0.927465,-0.003247,0.013913,-0.002192,14.156450,-4.255216,-31.224548,,,,,,,
1504196730.612888,-0.015639,0.381570,-2.759949,-0.098762,0.084988,-0.150785,-0.014513,-0.372378,-0.927968,0.003512,0.012759,-0.005306,14.156450,-4.255216,-31.224548,,,,,,,
1504196730.622898,-0.014648,0.380594,-2.761578,-0.075899,0.012334,-0.145280,-0.013599,-0.371472,-0.928344,0.004063,0.007458,-0.006409,14.605852,-4.102887,-31.374573,,,,,,,
1504196730.632908,-0.014379,0.379885,-2.763097,-0.057125,-0.037909,-0.139821,-0.013354,-0.370814,-0.928611,-0.001508,0.003077,-0.007927,14.605852,-4.102887,-31.374573,,,,,,,
1504196730.642918,-0.014364,0.379418,-2.764666,-0.040242,-0.064682,-0.145082,-0.013342,-0.370380,-0.928785,0.002203,-0.001217,-0.007373,14.455843,-3.879315,-31.001617,,,,,,,
1504196730.652927,-0.014448,0.379192,-2.766279,-0.019953,-0.065909,-0.150382,-0.013421,-0.370170,-0.928867,0.003381,-0.002206,-0.007275,14.455843,-3.879315,-31.001617,,,,,,,
1504196730.662937,-0.014317,0.379150,-2.767986,-0.002637,-0.042596,-0.162134,-0.013299,-0.370131,-0.928884,-0.001410,0.001158,-0.003336,14.531710,-4.179120,-30.924225,,,,,,,
1504196730.672947,-0.013803,0.379220,-2.769836,0.005184,-0.006417,-0.174993,-0.012822,-0.370196,-0.928865,-0.000209,-0.002455,-0.001936,14.531710,-4.179120,-30.924225,,,,,,,
1504196730.682957,-0.012811,0.379314,-2.771833,-0.001895,0.034147,-0.187886,-0.011900,-0.370283,-0.928843,-0.000215,-0.005388,-0.003820,14.606295,-4.103482,-31.074585,,,,,,,
1504196730.692966,-0.011618,0.379148,-2.773855,-0.026372,0.043936,-0.184743,-0.010793,-0.370129,-0.928918,0.005559,-0.011127,-0.003135,14.606295,-4.103482,-31.074585,,,,,,,
1504196730.702976,-0.010695,0.378623,-2.775719,-0.065103,0.014401,-0.167680,-0.009937,-0.369642,-0.929121,0.010456,-0.019046,-0.004717,14.305696,-3.954541,-31.226440,,,,,,,
1504196730.712986,-0.010314,0.377716,-2.777294,-0.097633,-0.032249,-0.137767,-0.009587,-0.368799,-0.929460,0.016209,-0.023703,-0.015624,14.305696,-3.954541,-31.226440,,,,,,,
1504196730.722996,-0.010159,0.377057,-2.778681,-0.104472,-0.071644,-0.112095,-0.009445,-0.368186,-0.929704,0.015304,-0.026574,-0.013564,14.531603,-4.178967,-30.999207,,,,,,,
1504196730.733006,-0.010674,0.376224,-2.779844,-0.074857,-0.100664,-0.106655,-0.009927,-0.367411,-0.930006,0.015542,-0.020742,-0.007006,14.531603,-4.178967,-30.999207,,,,,,,
1504196730.743015,-0.011274,0.375855,-2.781018,-0.023635,-0.102147,-0.110834,-0.010487,-0.367068,-0.930135,0.017277,-0.012418,-0.004924,14.531221,-4.028974,-31.000305,,,,,,,
1504196730.753025,-0.011428,0.376102,-2.782403,0.016073,-0.082211,-0.124678,-0.010629,-0.367297,-0.930043,0.011484,-0.008283,-0.000240,14.531221,-4.028974,-31.000305,,,,,,,
1504196730.763035,-0.011323,0.376419,-2.783908,0.020577,-0.058793,-0.134320,-0.010530,-0.367593,-0.929927,0.010713,-0.005469,-0.003407,14.155886,-4.030210,-31.226257,,,,,,,
1504196730.773045,-0.011034,0.376558,-2.785374,-0.002723,-0.034107,-0.127997,-0.010261,-0.367722,-0.929879,0.007698,-0.007995,-0.010566,14.155886,-4.030210,-31.226257,,,,,,,
1504196730.783054,-0.010687,0.376385,-2.786655,-0.037888,-0.016787,-0.108876,-0.009939,-0.367561,-0.929946,0.004537,-0.011010,-0.013932,14.305132,-3.729535,-31.228119,,,,,,,
1504196730.793064,-0.010331,0.375935,-2.787720,-0.073126,-0.010120,-0.091871,-0.009609,-0.367142,-0.930115,0.003460,-0.013793,-0.008895,14.305132,-3.729535,-31.228119,,,,,,,
1504196730.803074,-0.009936,0.375211,-2.788742,-0.099850,-0.014165,-0.087643,-0.009245,-0.366469,-0.930384,0.008131,-0.013902,-0.004400,14.380693,-3.954206,-31.226257,,,,,,,
1504196730.813084,-0.009545,0.374382,-2.789809,-0.102055,-0.024798,-0.089765,-0.008883,-0.365698,-0.930691,0.012515,-0.013712,-0.005664,14.380693,-3.954206,-31.226257,,,,,,,
1504196730.823093,-0.009222,0.373778,-2.790877,-0.081855,-0.033488,-0.088649,-0.008585,-0.365135,-0.930915,0.013819,-0.012978,0.004081,14.380541,-3.804502,-31.077393,,,,,,,
1504196730.833103,-0.008927,0.373366,-2.791949,-0.071246,-0.041032,-0.087553,-0.008312,-0.364752,-0.931068,0.016246,-0.013285,0.010780,14.380541,-3.804502,-31.077393,,,,,,,
1504196730.843113,-0.008758,0.372898,-2.793037,-0.074476,-0.048457,-0.092885,-0.008156,-0.364316,-0.931240,0.014061,-0.011356,0.005977,14.679186,-3.352857,-31.230011,,,,,,,
1504196730.853123,-0.008530,0.372204,-2.794284,-0.095731,-0.048262,-0.108935,-0.007946,-0.363670,-0.931494,0.014431,-0.010766,0.000830,14.679186,-3.352857,-31.230011,,,,,,,
1504196730.863132,-0.008131,0.371314,-2.795671,-0.111607,-0.038527,-0.118589,-0.007577,-0.362840,-0.931821,0.016976,-0.012114,-0.003070,14.079119,-3.280698,-31.157043,,,,,,,
1504196730.873142,-0.007644,0.370318,-2.797057,-0.112496,-0.017205,-0.119698,-0.007125,-0.361912,-0.932185,0.011459,-0.011608,-0.008504,14.079119,-3.280698,-31.157043,,,,,,,
1504196730.883152,-0.007022,0.369486,-2.798283,-0.081383,0.013427,-0.104755,-0.006548,-0.361136,-0.932490,0.006411,-0.007028,-0.007604,14.679155,-3.427548,-31.379456,,,,,,,
1504196730.893162,-0.006219,0.369095,-2.799260,-0.034305,0.043920,-0.082312,-0.005800,-0.360772,-0.932636,0.004107,-0.003104,0.001087,14.679155,-3.427548,-31.379456,,,,,,,
1504196730.903172,-0.005342,0.369159,-2.799994,0.004068,0.053172,-0.059848,-0.004982,-0.360831,-0.932618,0.005074,-0.004358,0.003785,14.453325,-3.053708,-31.307831,,,,,,,
1504196730.913181,-0.004490,0.369444,-2.800597,0.014609,0.043485,-0.049140,-0.004187,-0.361097,-0.932519,0.008612,-0.007463,0.001305,14.453325,-3.053708,-31.307831,,,,,,,
1504196730.923191,-0.003842,0.369633,-2.801265,-0.003797,0.006349,-0.054445,-0.003582,-0.361273,-0.932453,0.013821,-0.010706,-0.003323,14.379107,-3.279340,-31.156311,,,,,,,
1504196730.933170,-0.003361,0.369626,-2.802168,-0.027453,-0.029661,-0.074706,-0.003134,-0.361267,-0.932457,0.021338,-0.016068,-0.011070,14.379107,-3.279340,-31.156311,,,,,,,
1504196730.943180,-0.003085,0.369439,-2.803314,-0.046772,-0.058245,-0.097108,-0.002876,-0.361093,-0.932525,0.021752,-0.017875,-0.010239,14.453356,-2.979001,-31.158386,,,,,,,
1504196730.953190,-0.003025,0.369073,-2.804545,-0.050085,-0.075259,-0.101356,-0.002821,-0.360751,-0.932658,0.020232,-0.013761,-0.014318,14.453356,-2.979001,-31.158386,,,,,,,
1504196730.963200,-0.003081,0.368768,-2.805714,-0.034029,-0.066867,-0.098143,-0.002874,-0.360466,-0.932768,0.013906,-0.010261,-0.015505,14.153704,-3.205060,-31.307465,,,,,,,
1504196730.973209,-0.003054,0.368546,-2.806803,-0.015718,-0.042512,-0.093885,-0.002849,-0.360260,-0.932848,0.008220,-0.004029,-0.013975,14.153704,-3.205060,-31.307465,,,,,,,
1504196730.983219,-0.002744,0.368386,-2.807830,0.002685,-0.006435,-0.089648,-0.002559,-0.360110,-0.932906,0.006771,-0.000638,-0.022614,14.228060,-2.904874,-31.234497,,,,,,,
1504196730.993229,-0.002104,0.368397,-2.808718,0.021066,0.032827,-0.075809,-0.001963,-0.360120,-0.932904,0.003916,-0.000247,-0.025592,14.228060,-2.904874,-31.234497,,,,,,,
1504196731.003239,-0.001290,0.368520,-2.809446,0.023282,0.051976,-0.061963,-0.001204,-0.360236,-0.932861,0.003081,-0.001276,-0.023209,14.378054,-2.904202,-31.234131,,,,,,,
1504196731.013248,-0.000498,0.368660,-2.810015,0.028469,0.044458,-0.044863,-0.000465,-0.360366,-0.932811,0.006675,-0.003099,-0.028828,14.378054,-2.904202,-31.234131,,,,,,,
1504196731.023258,0.000105,0.368868,-2.810495,0.044214,0.017682,-0.036251,0.000098,-0.360560,-0.932736,0.010629,-0.000005,-0.029895,14.453249,-2.978864,-31.233398,,,,,,,
1504196731.033268,0.000409,0.369292,-2.811080,0.065251,-0.028294,-0.050011,0.000381,-0.360955,-0.932583,0.015290,0.002832,-0.020984,14.453249,-2.978864,-31.233398,,,,,,,
1504196731.043278,0.000393,0.369856,-2.812004,0.079921,-0.080593,-0.080850,0.000367,-0.361482,-0.932379,0.020004,0.005555,-0.018411,14.228060,-2.904874,-31.234497,,,,,,,
1504196731.053288,-0.000027,0.370505,-2.813214,0.086044,-0.129632,-0.104238,-0.000026,-0.362086,-0.932145,0.020121,0.006160,-0.016662,14.228060,-2.904874,-31.234497,,,,,,,
1504196731.063297,-0.000930,0.371204,-2.814452,0.085788,-0.162658,-0.106317,-0.000866,-0.362738,-0.931891,0.013699,0.005087,-0.012918,14.153475,-2.980512,-31.084137,,,,,,,
1504196731.073307,-0.002109,0.371870,-2.815495,0.085721,-0.159478,-0.088177,-0.001965,-0.363358,-0.931648,0.005444,0.005875,-0.014504,14.153475,-2.980512,-31.084137,,,,,,,
1504196731.083317,-0.003284,0.372576,-2.816189,0.086961,-0.122219,-0.063689,-0.003059,-0.364016,-0.931388,-0.005105,0.007280,-0.008737,14.078554,-3.055692,-31.158752,,,,,,,
1504196731.093327,-0.004139,0.373214,-2.816626,0.082993,-0.071062,-0.042437,-0.003854,-0.364610,-0.931152,-0.010184,0.011125,-0.004593,14.078554,-3.055692,-31.158752,,,,,,,
1504196731.103336,-0.004623,0.373700,-2.816909,0.073763,-0.019847,-0.036137,-0.004304,-0.365062,-0.930973,-0.015914,0.016017,-0.003429,14.004534,-3.356336,-31.006683,,,,,,,
1504196731.113346,-0.004670,0.374016,-2.817233,0.062370,0.019678,-0.042629,-0.004347,-0.365357,-0.930857,-0.016344,0.019135,-0.002187,14.004534,-3.356336,-31.006683,,,,,,,
1504196731.123356,-0.004399,0.374295,-2.817666,0.058304,0.038900,-0.053342,-0.004094,-0.365617,-0.930757,-0.014842,0.019730,0.001557,14.078173,-2.905698,-31.159851,,,,,,,
1504196731.133366,-0.003974,0.374688,-2.818224,0.060495,0.041020,-0.061880,-0.003698,-0.365982,-0.930614,-0.011790,0.016526,0.011364,14.078173,-2.905698,-31.159851,,,,,,,
1504196731.143375,-0.003456,0.375278,-2.818875,0.062620,0.036744,-0.067205,-0.003216,-0.366531,-0.930400,-0.005787,0.011383,0.021373,13.929110,-3.281369,-31.157410,,,,,,,
1504196731.153385,-0.002854,0.375975,-2.819609,0.059339,0.027180,-0.066127,-0.002654,-0.367180,-0.930146,0.001586,0.006828,0.030717,13.929110,-3.281369,-31.157410,,,,,,,
1504196731.163395,-0.002295,0.376702,-2.820264,0.050641,0.014453,-0.053311,-0.002134,-0.367856,-0.929880,0.008207,0.002026,0.033610,13.929384,-3.431226,-31.231293,,,,,,,
1504196731.173405,-0.002015,0.377049,-2.820803,0.028153,0.006110,-0.050133,-0.001873,-0.368179,-0.929753,0.010342,-0.004487,0.034795,13.929384,-3.431226,-31.231293,,,,,,,
1504196731.183414,-0.001822,0.377032,-2.821371,-0.013519,-0.004198,-0.054457,-0.001694,-0.368163,-0.929760,0.017517,-0.005036,0.031597,14.453478,-2.979154,-31.083405,,,,,,,
1504196731.193424,-0.001621,0.376589,-2.822011,-0.055086,-0.002783,-0.060936,-0.001507,-0.367750,-0.929923,0.021038,-0.004961,0.023582,14.453478,-2.979154,-31.083405,,,,,,,
1504196731.203434,-0.000841,0.376111,-2.822853,-0.077286,0.019786,-0.065286,-0.000783,-0.367306,-0.930100,0.019291,-0.007465,0.018524,14.004198,-3.355878,-31.231689,,,,,,,
1504196731.213444,-0.000287,0.375349,-2.823476,-0.075074,0.036805,-0.053571,-0.000267,-0.366598,-0.930380,0.018318,-0.001872,0.016271,14.004198,-3.355878,-31.231689,,,,,,,
1504196731.223454,0.000293,0.374747,-2.823840,-0.054866,0.046201,-0.025800,0.000273,-0.366037,-0.930600,0.016115,0.004434,0.012738,14.154299,-3.355359,-31.156311,,,,,,,
1504196731.233463,0.000716,0.374399,-2.823852,-0.028416,0.039554,0.008414,0.000666,-0.365714,-0.930727,0.013662,0.003989,0.009600,14.154299,-3.355359,-31.156311,,,,,,,
1504196731.243473,0.001101,0.374243,-2.823612,-0.009599,0.011662,0.041584,0.001025,-0.365568,-0.930784,0.014905,0.004820,0.008222,14.454149,-3.204312,-31.006683,,,,,,,
1504196731.253483,0.001056,0.374048,-2.823087,-0.012049,-0.014975,0.061906,0.000983,-0.365386,-0.930856,0.013436,0.005797,0.000436,14.454149,-3.204312,-31.006683,,,,,,,
1504196731.263493,0.000862,0.373674,-2.822489,-0.024890,-0.018065,0.064023,0.000802,-0.365038,-0.930992,0.012305,0.006411,-0.006508,14.229006,-3.279874,-31.231689,,,,,,,
1504196731.273502,0.000737,0.373077,-2.821863,-0.043921,0.003407,0.062883,0.000686,-0.364483,-0.931210,0.007706,0.007137,-0.010700,14.229006,-3.279874,-31.231689,,,,,,,
1504196731.283512,0.000702,0.372300,-2.821172,-0.054374,0.032261,0.064950,0.000654,-0.363758,-0.931493,-0.002119,0.008412,-0.014003,14.303591,-3.204236,-31.382080,,,,,,,
1504196731.293491,0.000849,0.371552,-2.820312,-0.046729,0.064150,0.079851,0.000791,-0.363062,-0.931765,-0.006620,0.007746,-0.016661,14.303591,-3.204236,-31.382080,,,,,,,
1504196731.303501,0.000996,0.371036,-2.819245,-0.030704,0.075722,0.093736,0.000928,-0.362581,-0.931952,-0.012403,0.005098,-0.010965,14.229036,-3.205167,-31.082275,,,,,,,
1504196731.313511,0.001108,0.370666,-2.818096,-0.019023,0.072421,0.099100,0.001033,-0.362236,-0.932086,-0.011729,0.005013,-0.009443,14.229036,-3.205167,-31.082275,,,,,,,
1504196731.323521,0.001203,0.370429,-2.816973,-0.012669,0.065974,0.098057,0.001122,-0.362015,-0.932172,-0.009865,0.001633,-0.009799,14.453997,-3.278867,-31.231140,,,,,,,
1504196731.333530,0.001304,0.370345,-2.815860,-0.006268,0.065919,0.098069,0.001216,-0.361937,-0.932202,-0.009165,-0.002503,-0.005649,14.453997,-3.278867,-31.231140,,,,,,,
1504196731.343540,0.001365,0.370439,-2.814712,0.004355,0.062628,0.102363,0.001273,-0.362024,-0.932168,-0.009345,-0.004339,0.000603,14.003252,-2.980878,-31.234497,,,,,,,
1504196731.353550,0.001345,0.370694,-2.813556,0.019238,0.055045,0.101336,0.001253,-0.362263,-0.932075,-0.009554,-0.005718,0.000465,14.003252,-2.980878,-31.234497,,,,,,,
1504196731.363560,0.001264,0.371182,-2.812519,0.034093,0.035754,0.087520,0.001178,-0.362717,-0.931898,-0.006427,-0.007201,0.006468,14.078814,-3.205548,-31.232635,,,,,,,
1504196731.373570,0.001066,0.371760,-2.811719,0.040345,0.004820,0.068373,0.000993,-0.363256,-0.931689,-0.001939,-0.005823,0.010790,14.078814,-3.205548,-31.232635,,,,,,,
1504196731.383579,0.000662,0.372495,-2.811104,0.043400,-0.023960,0.052417,0.000617,-0.363940,-0.931422,0.000207,-0.014294,0.007243,14.079378,-3.430539,-31.230927,,,,,,,
1504196731.393589,0.000155,0.373269,-2.810670,0.034919,-0.029200,0.034266,0.000144,-0.364661,-0.931140,-0.003425,-0.018045,0.010761,14.079378,-3.430539,-31.230927,,,,,,,
1504196731.403599,-0.000289,0.373891,-2.810315,0.014803,-0.015176,0.026735,-0.000269,-0.365240,-0.930913,-0.006796,-0.018076,0.014440,14.154146,-3.429914,-31.380737,,,,,,,
1504196731.413609,-0.000623,0.374252,-2.809885,-0.009592,0.007391,0.035194,-0.000580,-0.365577,-0.930781,-0.011230,-0.020028,0.008631,14.154146,-3.429914,-31.380737,,,,,,,
1504196731.423618,-0.000937,0.374408,-2.809243,-0.022307,0.027721,0.051148,-0.000872,-0.365722,-0.930724,-0.017607,-0.019471,0.005233,14.229830,-3.654721,-31.303894,,,,,,,
1504196731.433628,-0.001219,0.374466,-2.808461,-0.021238,0.034090,0.061815,-0.001135,-0.365775,-0.930703,-0.019602,-0.013116,0.008187,14.229830,-3.654721,-31.303894,,,,,,,
1504196731.443638,-0.001483,0.374487,-2.807694,-0.005237,0.030762,0.057581,-0.001380,-0.365795,-0.930694,-0.018396,-0.004169,0.007064,13.929827,-3.656064,-31.304626,,,,,,,
1504196731.453648,-0.001768,0.374697,-2.807102,0.021398,0.014574,0.039511,-0.001645,-0.365990,-0.930617,-0.015201,-0.001380,0.005980,13.929827,-3.656064,-31.304626,,,,,,,
1504196731.463657,-0.002141,0.375123,-2.806794,0.041567,-0.014340,0.013981,-0.001992,-0.366387,-0.930461,-0.011482,0.000405,0.006846,13.929049,-3.206525,-31.083008,,,,,,,
1504196731.473667,-0.002670,0.375596,-2.806774,0.047824,-0.046338,-0.008366,-0.002484,-0.366827,-0.930286,-0.007754,0.000403,-0.000424,13.929049,-3.206525,-31.083008,,,,,,,
1504196731.483677,-0.003387,0.376054,-2.806919,0.048806,-0.065514,-0.022206,-0.003150,-0.367254,-0.930116,-0.008889,-0.001887,-0.010162,14.154497,-3.430356,-31.155731,,,,,,,
1504196731.493687,-0.004186,0.376440,-2.807107,0.043425,-0.071865,-0.023271,-0.003893,-0.367612,-0.929971,-0.008437,-0.001910,-0.013892,14.154497,-3.430356,-31.155731,,,,,,,
1504196731.503696,-0.004953,0.376772,-2.807287,0.040384,-0.053724,-0.026509,-0.004606,-0.367921,-0.929846,-0.013644,-0.000137,-0.013544,13.929384,-3.431226,-31.231293,,,,,,,
1504196731.513706,-0.005422,0.376970,-2.807488,0.026794,-0.020579,-0.029791,-0.005041,-0.368105,-0.929770,-0.015268,0.001391,-0.012414,13.929384,-3.431226,-31.231293,,,,,,,
1504196731.523716,-0.005513,0.377014,-2.807737,0.010016,0.013660,-0.034149,-0.005126,-0.368146,-0.929754,-0.015336,0.001905,-0.011378,14.229265,-3.429715,-31.305573,,,,,,,
1504196731.533726,-0.005346,0.376923,-2.807985,-0.003630,0.042539,-0.033154,-0.004971,-0.368061,-0.929788,-0.017414,0.000981,-0.011710,14.229265,-3.429715,-31.305573,,,,,,,
1504196731.543736,-0.004943,0.376737,-2.808229,-0.016321,0.058620,-0.030000,-0.004596,-0.367888,-0.929859,-0.015057,-0.000642,-0.009152,14.079943,-3.655545,-31.229248,,,,,,,
1504196731.553745,-0.004466,0.376509,-2.808443,-0.021734,0.052264,-0.024661,-0.004153,-0.367677,-0.929944,-0.009549,-0.002135,-0.008441,14.079943,-3.655545,-31.229248,,,,,,,
1504196731.563755,-0.004104,0.376284,-2.808639,-0.017712,0.025583,-0.018202,-0.003817,-0.367467,-0.930029,-0.002699,-0.001582,-0.008082,14.229189,-3.354871,-31.231140,,,,,,,
1504196731.573765,-0.003980,0.376261,-2.808827,-0.002036,-0.012911,-0.013838,-0.003701,-0.367446,-0.930037,0.004724,-0.002702,-0.001695,14.229189,-3.354871,-31.231140,,,,,,,
1504196731.583775,-0.004228,0.376367,-2.809089,0.010331,-0.069483,-0.016920,-0.003932,-0.367544,-0.929998,0.012462,0.000509,0.006017,14.455095,-3.579312,-31.003876,,,,,,,
1504196731.593771,-0.004981,0.376517,-2.809461,0.025811,-0.138863,-0.023177,-0.004632,-0.367684,-0.929939,0.020562,0.004280,0.001595,14.455095,-3.579312,-31.003876,,,,,,,
1504196731.603781,-0.006269,0.376880,-2.809951,0.051044,-0.193399,-0.035848,-0.005829,-0.368022,-0.929799,0.021820,0.002635,-0.004939,14.155169,-3.655515,-31.079071,,,,,,,
1504196731.613791,-0.007813,0.377449,-2.810629,0.084132,-0.205365,-0.058187,-0.007263,-0.368550,-0.929579,0.017364,0.011708,-0.001848,14.155169,-3.655515,-31.079071,,,,,,,
1504196731.623801,-0.009276,0.378306,-2.811393,0.118489,-0.183260,-0.066706,-0.008620,-0.369347,-0.929252,0.010314,0.016564,-0.000360,13.929873,-3.581372,-31.155182,,,,,,,
1504196731.633810,-0.010526,0.379396,-2.812038,0.127353,-0.136455,-0.058234,-0.009777,-0.370360,-0.928837,0.000881,0.011839,-0.000118,13.929873,-3.581372,-31.155182,,,,,,,
1504196731.643790,-0.011344,0.380423,-2.812419,0.111770,-0.068155,-0.033831,-0.010532,-0.371313,-0.928448,-0.005947,0.009145,-0.002918,14.004534,-3.580579,-31.380005,,,,,,,
1504196731.653799,-0.011710,0.381194,-2.812405,0.070540,0.001409,0.001201,-0.010870,-0.372029,-0.928158,-0.012522,0.003773,-0.000965,14.004534,-3.580579,-31.380005,,,,,,,
1504196731.663809,-0.011632,0.381480,-2.812010,0.020647,0.055061,0.036245,-0.010795,-0.372295,-0.928052,-0.013329,0.000896,-0.004687,14.154528,-3.355664,-31.006317,,,,,,,
1504196731.673819,-0.011330,0.381451,-2.811315,-0.007051,0.077635,0.063911,-0.010515,-0.372268,-0.928066,-0.011030,-0.001801,-0.005879,14.154528,-3.355664,-31.006317,,,,,,,
1504196731.683829,-0.010974,0.381421,-2.810472,-0.003948,0.073333,0.076733,-0.010186,-0.372239,-0.928081,-0.005867,-0.003264,-0.000523,13.929567,-3.506223,-31.230743,,,,,,,
1504196731.693838,-0.010696,0.381625,-2.809651,0.023615,0.049665,0.074688,-0.009927,-0.372429,-0.928008,0.000344,-0.001442,0.004637,13.929567,-3.506223,-31.230743,,,,,,,
1504196731.703848,-0.010650,0.382104,-2.808945,0.048984,0.013238,0.064122,-0.009882,-0.372873,-0.927830,0.004434,-0.000234,0.008518,14.004488,-3.431027,-31.156097,,,,,,,
1504196731.713858,-0.010984,0.382804,-2.808465,0.065828,-0.030565,0.039678,-0.010189,-0.373523,-0.927565,0.002971,-0.001584,0.006972,14.004488,-3.431027,-31.156097,,,,,,,
1504196731.723868,-0.011557,0.383604,-2.808244,0.071065,-0.058288,0.015185,-0.010717,-0.374265,-0.927260,0.001500,-0.004275,0.003066,14.004839,-3.431485,-30.931122,,,,,,,
1504196731.733878,-0.012295,0.384415,-2.808223,0.062534,-0.069920,-0.004022,-0.011397,-0.375017,-0.926948,-0.001832,-0.007093,0.004279,14.004839,-3.431485,-30.931122,,,,,,,
1504196731.743887,-0.012999,0.385157,-2.808333,0.050936,-0.062351,-0.018999,-0.012046,-0.375704,-0.926661,-0.005578,-0.010801,0.002192,13.930056,-3.656369,-31.154602,,,,,,,
1504196731.753897,-0.013537,0.385875,-2.808499,0.047934,-0.039947,-0.022245,-0.012541,-0.376370,-0.926385,-0.008669,-0.014103,0.000863,13.930056,-3.656369,-31.154602,,,,,,,
1504196731.763907,-0.013879,0.386699,-2.808552,0.060994,-0.001707,-0.011615,-0.012854,-0.377133,-0.926070,-0.013818,-0.012897,0.004973,14.380617,-3.879346,-31.151794,,,,,,,
1504196731.773917,-0.013878,0.387741,-2.808426,0.080463,0.040736,0.004357,-0.012847,-0.378098,-0.925676,-0.015977,-0.012466,0.010942,14.380617,-3.879346,-31.151794,,,,,,,
1504196731.783926,-0.013658,0.388877,-2.808151,0.083799,0.063061,0.015003,-0.012638,-0.379149,-0.925249,-0.016445,-0.012177,0.013643,13.930056,-3.656369,-31.154602,,,,,,,
1504196731.793936,-0.013421,0.389831,-2.807868,0.064470,0.048297,0.017131,-0.012414,-0.380032,-0.924890,-0.012275,-0.011234,0.010660,13.930056,-3.656369,-31.154602,,,,,,,
1504196731.803946,-0.013437,0.390562,-2.807705,0.042770,-0.002665,0.008644,-0.012424,-0.380708,-0.924612,-0.004559,-0.012144,0.007787,14.005693,-3.955884,-31.227173,,,,,,,
1504196731.813956,-0.013989,0.391077,-2.807726,0.018737,-0.081308,-0.004068,-0.012932,-0.381185,-0.924408,0.003411,-0.011332,0.013062,14.005693,-3.955884,-31.227173,,,,,,,
1504196731.823965,-0.015073,0.391439,-2.807992,0.010820,-0.150483,-0.024242,-0.013932,-0.381519,-0.924256,0.011125,-0.009579,0.012269,14.156038,-3.955655,-31.001801,,,,,,,
1504196731.833975,-0.016461,0.391751,-2.808562,0.019290,-0.178225,-0.055134,-0.015213,-0.381808,-0.924117,0.009644,-0.002546,0.014159,14.156038,-3.955655,-31.001801,,,,,,,
1504196731.843985,-0.017643,0.392165,-2.809397,0.037806,-0.146382,-0.079709,-0.016303,-0.382190,-0.923940,0.005866,0.004718,0.021413,14.080660,-3.805997,-31.003113,,,,,,,
1504196731.853995,-0.018297,0.392726,-2.810240,0.046978,-0.067603,-0.080899,-0.016903,-0.382708,-0.923715,-0.003437,0.005282,0.023767,14.080660,-3.805997,-31.003113,,,,,,,
1504196731.864004,-0.018248,0.393136,-2.810942,0.024118,0.016752,-0.068277,-0.016855,-0.383087,-0.923558,-0.010367,0.005402,0.024236,13.705629,-3.882382,-31.153473,,,,,,,
1504196731.874014,-0.017630,0.393064,-2.811362,-0.024545,0.085320,-0.041796,-0.016284,-0.383021,-0.923596,-0.014493,0.002894,0.013196,13.705629,-3.882382,-31.153473,,,,,,,
1504196731.884024,-0.016635,0.392489,-2.811479,-0.068153,0.122938,-0.008847,-0.015369,-0.382490,-0.923832,-0.012066,-0.000506,0.001972,13.779573,-3.506894,-31.231110,,,,,,,
1504196731.894034,-0.015413,0.391642,-2.811391,-0.085225,0.134779,0.010316,-0.014245,-0.381706,-0.924174,-0.005744,0.001076,0.001521,13.779573,-3.506894,-31.231110,,,,,,,
1504196731.904044,-0.014155,0.390859,-2.811226,-0.068298,0.122909,0.019973,-0.013087,-0.380982,-0.924490,0.001887,0.004884,0.006033,13.854570,-3.506558,-31.230927,,,,,,,
1504196731.914053,-0.013131,0.390339,-2.811028,-0.035521,0.088537,0.024359,-0.012143,-0.380502,-0.924700,0.006344,0.008829,0.010394,13.854570,-3.506558,-31.230927,,,,,,,
1504196731.924063,-0.012660,0.390146,-2.810862,-0.005138,0.016897,0.021335,-0.011709,-0.380324,-0.924779,0.010412,0.009138,0.012319,14.079485,-3.430692,-31.155914,,,,,,,
1504196731.934073,-0.012914,0.390214,-2.810783,0.016652,-0.065321,0.012977,-0.011943,-0.380386,-0.924751,0.014873,0.006958,0.008140,14.079485,-3.430692,-31.155914,,,,,,,
1504196731.944083,-0.013815,0.390494,-2.810864,0.034295,-0.135778,-0.000746,-0.012774,-0.380645,-0.924633,0.016391,0.004714,0.006740,13.931231,-4.031674,-31.001801,,,,,,,
1504196731.954092,-0.015229,0.390912,-2.811098,0.047889,-0.179561,-0.015590,-0.014080,-0.381032,-0.924455,0.014217,0.005284,0.007203,13.931231,-4.031674,-31.001801,,,,,,,
1504196731.964102,-0.016751,0.391430,-2.811418,0.057586,-0.174300,-0.026257,-0.015484,-0.381510,-0.924235,0.010402,0.003184,0.002268,13.705355,-3.732526,-31.079620,,,,,,,
1504196731.974112,-0.017937,0.391963,-2.811743,0.052763,-0.113515,-0.031710,-0.016576,-0.382004,-0.924012,0.001043,0.004196,0.004884,13.705355,-3.732526,-31.079620,,,,,,,
1504196731.984122,-0.018431,0.392340,-2.811988,0.029968,-0.024890,-0.025501,-0.017030,-0.382352,-0.923860,-0.006255,0.002804,0.007112,13.705507,-3.882230,-31.228485,,,,,,,
1504196731.994131,-0.018317,0.392396,-2.812092,0.000576,0.041406,-0.016061,-0.016924,-0.382404,-0.923840,-0.012190,0.001163,0.000653,13.705507,-3.882230,-31.228485,,,,,,,
1504196732.004111,-0.017856,0.392200,-2.812133,-0.018490,0.062866,-0.009726,-0.016499,-0.382223,-0.923923,-0.010601,0.001546,-0.002636,13.930666,-3.806668,-31.003479,,,,,,,
1504196732.014120,-0.017439,0.391941,-2.812290,-0.017663,0.027703,-0.018202,-0.016116,-0.381983,-0.924029,-0.003309,0.001734,-0.004667,13.930666,-3.806668,-31.003479,,,,,,,
1504196732.024130,-0.017474,0.391795,-2.812666,0.002095,-0.047033,-0.035114,-0.016149,-0.381848,-0.924084,0.004979,0.003613,-0.008213,13.855440,-3.806714,-31.153656,,,,,,,
1504196732.034140,-0.018210,0.391990,-2.813291,0.040978,-0.133643,-0.055176,-0.016828,-0.382028,-0.923998,0.010786,0.004800,-0.008131,13.855440,-3.806714,-31.153656,,,,,,,
1504196732.044150,-0.019629,0.392616,-2.814027,0.089512,-0.205429,-0.061371,-0.018135,-0.382606,-0.923733,0.013023,0.007332,-0.007312,14.004381,-3.430890,-31.231110,,,,,,,
1504196732.054160,-0.021507,0.393699,-2.814663,0.132984,-0.232435,-0.050575,-0.019860,-0.383607,-0.923283,0.012124,0.006913,-0.007763,14.004381,-3.430890,-31.231110,,,,,,,
1504196732.064169,-0.023457,0.395099,-2.815008,0.154494,-0.197470,-0.029251,-0.021648,-0.384899,-0.922705,0.001735,0.005917,-0.005396,13.705294,-3.657681,-31.005157,,,,,,,
1504196732.074179,-0.025015,0.396566,-2.815049,0.147538,-0.120712,-0.009117,-0.023071,-0.386254,-0.922104,-0.009094,0.004036,-0.000854,13.705294,-3.657681,-31.005157,,,,,,,
1504196732.084189,-0.025897,0.397773,-2.814855,0.112967,-0.030938,0.006677,-0.023872,-0.387366,-0.921617,-0.016762,0.002051,-0.000304,13.705736,-3.882535,-31.078491,,,,,,,
1504196732.094199,-0.026035,0.398472,-2.814539,0.051646,0.045211,0.016045,-0.023993,-0.388010,-0.921343,-0.018640,-0.000585,0.000124,13.705736,-3.882535,-31.078491,,,,,,,
1504196732.104208,-0.025524,0.398505,-2.814272,-0.021533,0.098028,0.012625,-0.023522,-0.388041,-0.921342,-0.016136,-0.004476,0.000032,13.255327,-3.585004,-30.856842,,,,,,,
1504196732.114218,-0.024483,0.397932,-2.814173,-0.080980,0.129428,0.002860,-0.022568,-0.387513,-0.921588,-0.010223,-0.007263,-0.000851,13.255327,-3.585004,-30.856842,,,,,,,
1504196732.124228,-0.023174,0.396952,-2.814177,-0.119248,0.143600,-0.002567,-0.021371,-0.386609,-0.921996,-0.007133,-0.008425,0.001738,13.555178,-3.433957,-30.707245,,,,,,,
1504196732.134238,-0.021861,0.395825,-2.814136,-0.125693,0.142578,0.004896,-0.020169,-0.385570,-0.922458,-0.007083,-0.006474,0.005283,13.555178,-3.433957,-30.707245,,,,,,,
1504196732.144247,-0.020778,0.394791,-2.813976,-0.114187,0.120093,0.015630,-0.019179,-0.384615,-0.922878,-0.006975,-0.005918,0.008861,13.479952,-3.433988,-30.857422,,,,,,,
1504196732.154257,-0.020051,0.393892,-2.813760,-0.097445,0.079460,0.016799,-0.018515,-0.383785,-0.923237,-0.006250,-0.003162,0.012119,13.479952,-3.433988,-30.857422,,,,,,,
1504196732.164267,-0.019696,0.393207,-2.813641,-0.068953,0.034478,0.008388,-0.018192,-0.383153,-0.923506,-0.003140,-0.002071,0.010649,13.554491,-3.208798,-30.783905,,,,,,,
1504196732.174277,-0.019734,0.392902,-2.813652,-0.023327,-0.006376,-0.006404,-0.018229,-0.382871,-0.923622,-0.004140,0.001844,0.012397,13.554491,-3.208798,-30.783905,,,,,,,
1504196732.184286,-0.020071,0.393136,-2.813758,0.027696,-0.035560,-0.014803,-0.018538,-0.383087,-0.923526,-0.004197,0.003372,0.018405,13.704683,-3.507382,-31.156281,,,,,,,
1504196732.194296,-0.020556,0.393790,-2.813890,0.054324,-0.044301,-0.019010,-0.018981,-0.383691,-0.923266,-0.006486,-0.000373,0.021640,13.704683,-3.507382,-31.156281,,,,,,,
1504196732.204306,-0.021014,0.394432,-2.814019,0.045915,-0.029315,-0.020118,-0.019399,-0.384284,-0.923011,-0.010234,-0.001061,0.017524,13.480516,-3.883252,-31.229034,,,,,,,
1504196732.214316,-0.021213,0.394825,-2.814106,0.013047,0.000782,-0.012755,-0.019580,-0.384646,-0.922856,-0.009534,-0.006101,0.010747,13.480516,-3.883252,-31.229034,,,,,,,
1504196732.224326,-0.021225,0.394816,-2.814080,-0.029446,0.028826,-0.004337,-0.019591,-0.384639,-0.922859,-0.013978,-0.008733,0.005974,13.705812,-3.957379,-31.152924,,,,,,,
1504196732.234335,-0.021005,0.394408,-2.814060,-0.065592,0.044041,-0.005493,-0.019391,-0.384262,-0.923021,-0.011600,-0.009995,0.002534,13.705812,-3.957379,-31.152924,,,,,,,
1504196732.244345,-0.020617,0.393818,-2.814090,-0.073018,0.048364,-0.006581,-0.019037,-0.383717,-0.923255,-0.006720,-0.009258,0.000907,13.480181,-3.658536,-31.080719,,,,,,,
1504196732.254355,-0.020228,0.393327,-2.814194,-0.059169,0.040797,-0.014015,-0.018682,-0.383264,-0.923450,-0.005518,-0.005851,0.006687,13.480181,-3.658536,-31.080719,,,,,,,
1504196732.264365,-0.019915,0.393017,-2.814443,-0.037942,0.019322,-0.025681,-0.018395,-0.382977,-0.923575,-0.002113,-0.003238,0.010489,13.780092,-3.582349,-31.005554,,,,,,,
1504196732.274374,-0.019714,0.392821,-2.814791,-0.020962,0.003206,-0.033095,-0.018211,-0.382796,-0.923653,0.000251,-0.000535,0.006585,13.780092,-3.582349,-31.005554,,,,,,,
1504196732.284384,-0.019550,0.392755,-2.815185,-0.005939,0.010546,-0.038419,-0.018061,-0.382735,-0.923682,-0.003607,-0.000551,0.001517,13.780397,-3.657498,-30.929993,,,,,,,
1504196732.294394,-0.019126,0.392757,-2.815602,-0.002511,0.038224,-0.039529,-0.017668,-0.382737,-0.923688,-0.002595,-0.000732,0.002256,13.780397,-3.657498,-30.929993,,,,,,,
1504196732.304404,-0.018482,0.392742,-2.815963,-0.006604,0.062761,-0.035309,-0.017074,-0.382723,-0.923705,-0.004456,-0.002424,-0.001298,13.705065,-3.657376,-31.155151,,,,,,,
1504196732.314413,-0.017624,0.392713,-2.816340,-0.015040,0.075617,-0.034279,-0.016282,-0.382696,-0.923731,-0.001525,-0.007608,-0.002935,13.705065,-3.657376,-31.155151,,,,,,,
1504196732.324423,-0.016752,0.392651,-2.816746,-0.022679,0.055432,-0.032123,-0.015477,-0.382639,-0.923768,0.005589,-0.009695,-0.002883,13.780886,-3.807645,-30.853851,,,,,,,
1504196732.334433,-0.016201,0.392532,-2.817145,-0.024087,0.013886,-0.029918,-0.014968,-0.382529,-0.923822,0.009917,-0.009439,-0.003988,13.780886,-3.807645,-30.853851,,,,,,,
1504196732.344443,-0.015893,0.392421,-2.817586,-0.017903,-0.014931,-0.031993,-0.014684,-0.382426,-0.923869,0.014608,-0.006841,-0.003606,13.705629,-3.658124,-30.780151,,,,,,,
1504196732.354422,-0.015691,0.392385,-2.818090,-0.006226,-0.025674,-0.037292,-0.014498,-0.382393,-0.923886,0.015612,-0.002464,0.000272,13.705629,-3.658124,-30.780151,,,,,,,
1504196732.364432,-0.015486,0.392334,-2.818677,-0.009286,-0.016042,-0.050125,-0.014309,-0.382346,-0.923908,0.010983,0.001334,0.004429,13.929567,-3.506223,-31.230743,,,,,,,
1504196732.374442,-0.015110,0.392122,-2.819408,-0.026162,-0.000968,-0.065125,-0.013962,-0.382150,-0.923995,0.008057,0.002084,0.004149,13.929567,-3.506223,-31.230743,,,,,,,
1504196732.384451,-0.014649,0.391690,-2.820182,-0.046368,0.006661,-0.066241,-0.013539,-0.381751,-0.924166,0.006124,0.002830,0.002627,13.629488,-3.432721,-31.157043,,,,,,,
1504196732.394461,-0.014183,0.391097,-2.820865,-0.061284,0.015299,-0.056676,-0.013112,-0.381203,-0.924398,0.003560,0.002373,0.004110,13.629488,-3.432721,-31.157043,,,,,,,
1504196732.404471,-0.013784,0.390511,-2.821363,-0.058165,0.016321,-0.038527,-0.012746,-0.380661,-0.924627,0.002812,0.001709,0.005758,13.704714,-3.432675,-31.006866,,,,,,,
1504196732.414481,-0.013521,0.389978,-2.821629,-0.049771,0.011968,-0.017157,-0.012505,-0.380168,-0.924833,0.002037,0.004818,0.009809,13.704714,-3.432675,-31.006866,,,,,,,
1504196732.424490,-0.013391,0.389536,-2.821698,-0.042465,0.002301,-0.000049,-0.012388,-0.379759,-0.925003,0.004118,0.005003,0.010681,13.780016,-3.507489,-30.931122,,,,,,,
1504196732.434500,-0.013404,0.389096,-2.821695,-0.042575,-0.009423,0.003173,-0.012402,-0.379352,-0.925169,0.003704,0.004658,0.009047,13.780016,-3.507489,-30.931122,,,,,,,
1504196732.444510,-0.013342,0.388632,-2.821784,-0.047805,-0.002974,-0.007522,-0.012347,-0.378923,-0.925346,0.005084,0.002550,0.006477,13.705217,-3.582837,-30.930756,,,,,,,
1504196732.454520,-0.013095,0.388126,-2.822029,-0.056138,0.013096,-0.022509,-0.012121,-0.378455,-0.925540,0.004171,0.001700,0.008167,13.705217,-3.582837,-30.930756,,,,,,,
1504196732.464529,-0.012650,0.387497,-2.822408,-0.071953,0.029223,-0.034306,-0.011712,-0.377872,-0.925784,0.002221,0.002429,0.011950,13.705431,-3.583127,-30.780731,,,,,,,
1504196732.474539,-0.012182,0.386783,-2.822858,-0.081539,0.027178,-0.040724,-0.011282,-0.377211,-0.926058,0.001577,-0.000459,0.010043,13.705431,-3.583127,-30.780731,,,,,,,
1504196732.484549,-0.011772,0.385987,-2.823212,-0.084834,0.023994,-0.026848,-0.010906,-0.376474,-0.926363,0.000835,-0.002677,0.005327,13.779726,-3.432340,-31.006683,,,,,,,
1504196732.494559,-0.011577,0.385338,-2.823344,-0.070057,0.016391,-0.006528,-0.010728,-0.375873,-0.926609,-0.002562,-0.004102,0.005329,13.779726,-3.432340,-31.006683,,,,,,,
1504196732.504568,-0.011668,0.384919,-2.823230,-0.044714,-0.004086,0.013833,-0.010814,-0.375484,-0.926766,-0.004048,-0.003285,0.006081,13.479189,-3.133985,-30.859680,,,,,,,
1504196732.514578,-0.012084,0.384708,-2.822958,-0.019431,-0.037340,0.025677,-0.011200,-0.375289,-0.926840,-0.001098,-0.002275,0.002417,13.479189,-3.133985,-30.859680,,,,,,,
1504196732.524588,-0.012830,0.384674,-2.822637,0.004866,-0.066314,0.027905,-0.011892,-0.375257,-0.926844,-0.001032,-0.001009,-0.004155,13.704042,-3.207532,-31.083557,,,,,,,
1504196732.534598,-0.013745,0.384823,-2.822401,0.026128,-0.082463,0.017297,-0.012739,-0.375395,-0.926777,-0.001421,0.001509,-0.005398,13.704042,-3.207532,-31.083557,,,,,,,
1504196732.544608,-0.014702,0.385171,-2.822293,0.037867,-0.090006,0.004522,-0.013625,-0.375718,-0.926634,-0.002351,0.000108,-0.002367,13.553637,-3.132901,-31.234497,,,,,,,
1504196732.554617,-0.015684,0.385547,-2.822278,0.030451,-0.088872,-0.004032,-0.014532,-0.376066,-0.926479,-0.004801,-0.004092,-0.003605,13.553637,-3.132901,-31.234497,,,,,,,
1504196732.564627,-0.016657,0.385762,-2.822312,0.013448,-0.084464,-0.010472,-0.015432,-0.376266,-0.926383,-0.008402,-0.006486,-0.008477,13.854036,-3.206861,-31.083191,,,,,,,
1504196732.574637,-0.017555,0.385871,-2.822414,0.003885,-0.082251,-0.014762,-0.016263,-0.376366,-0.926328,-0.006427,-0.007636,-0.011462,13.854036,-3.206861,-31.083191,,,,,,,
1504196732.584647,-0.018433,0.385945,-2.822540,0.011373,-0.081247,-0.016885,-0.017076,-0.376435,-0.926286,-0.007125,-0.005721,-0.012405,13.704348,-3.282681,-31.007996,,,,,,,
1504196732.594640,-0.019309,0.386200,-2.822673,0.033804,-0.079300,-0.018983,-0.017886,-0.376671,-0.926174,-0.008832,-0.002754,-0.012348,13.704348,-3.282681,-31.007996,,,,,,,
1504196732.604650,-0.020172,0.386778,-2.822816,0.078610,-0.079671,-0.018904,-0.018681,-0.377206,-0.925941,-0.007595,0.001672,-0.010903,13.329378,-3.433911,-31.232788,,,,,,,
1504196732.614661,-0.021082,0.387650,-2.822917,0.102013,-0.086262,-0.015649,-0.019516,-0.378014,-0.925594,-0.006638,0.001732,-0.009846,13.329378,-3.433911,-31.232788,,,,,,,
1504196732.624671,-0.022039,0.388757,-2.822997,0.122218,-0.091762,-0.011334,-0.020393,-0.379039,-0.925156,-0.004662,0.000255,-0.011993,13.254381,-3.434247,-31.232971,,,,,,,
1504196732.634679,-0.022975,0.389862,-2.823038,0.110523,-0.085276,-0.009231,-0.021249,-0.380060,-0.924718,-0.004432,-0.002737,-0.011089,13.254381,-3.434247,-31.232971,,,,,,,
1504196732.644689,-0.023753,0.390968,-2.823095,0.100024,-0.066006,-0.012484,-0.021959,-0.381083,-0.924280,-0.004714,-0.005437,-0.007468,13.478823,-3.208249,-31.234100,,,,,,,
1504196732.654699,-0.024310,0.391870,-2.823216,0.075632,-0.049819,-0.015757,-0.022465,-0.381917,-0.923923,-0.003231,-0.008601,-0.007946,13.478823,-3.208249,-31.234100,,,,,,,
1504196732.664709,-0.024745,0.392650,-2.823336,0.071476,-0.035933,-0.015788,-0.022860,-0.382638,-0.923616,-0.004545,-0.006675,-0.010772,13.329195,-3.358914,-31.233337,,,,,,,
1504196732.674718,-0.025018,0.393484,-2.823441,0.079062,-0.020014,-0.013668,-0.023103,-0.383409,-0.923290,-0.004057,-0.004683,-0.001103,13.329195,-3.358914,-31.233337,,,,,,,
1504196732.684728,-0.025076,0.394421,-2.823514,0.068540,0.001379,-0.008387,-0.023148,-0.384274,-0.922929,-0.001755,-0.006947,0.006486,13.479723,-3.657941,-31.380707,,,,,,,
1504196732.694738,-0.024947,0.395168,-2.823555,0.051638,0.022828,-0.007386,-0.023022,-0.384963,-0.922645,-0.004185,-0.009050,0.007545,13.479723,-3.657941,-31.380707,,,,,,,
1504196732.704748,-0.024688,0.395623,-2.823596,0.011248,0.040210,-0.009621,-0.022779,-0.385383,-0.922475,-0.008105,-0.011895,0.006322,13.479494,-3.433393,-31.157410,,,,,,,
1504196732.714727,-0.024256,0.395826,-2.823725,-0.003542,0.052062,-0.019274,-0.022378,-0.385571,-0.922407,-0.007194,-0.010670,0.007063,13.479494,-3.433393,-31.157410,,,,,,,
1504196732.724737,-0.023619,0.395852,-2.823990,-0.019373,0.066056,-0.031067,-0.021790,-0.385594,-0.922411,-0.005981,-0.007091,0.013125,13.329042,-3.433469,-31.457794,,,,,,,
1504196732.734747,-0.022843,0.395929,-2.824381,-0.008628,0.069173,-0.040660,-0.021074,-0.385666,-0.922398,-0.004042,-0.003952,0.013218,13.329042,-3.433469,-31.457794,,,,,,,
1504196732.744756,-0.022086,0.395973,-2.824805,-0.008739,0.056385,-0.038503,-0.020375,-0.385706,-0.922397,-0.001155,-0.002722,0.014301,13.480181,-3.658536,-31.080719,,,,,,,
1504196732.754766,-0.021547,0.396030,-2.825148,-0.008983,0.032931,-0.026720,-0.019878,-0.385759,-0.922386,0.000850,-0.002684,0.010734,13.480181,-3.658536,-31.080719,,,,,,,
1504196732.764776,-0.021228,0.395908,-2.825339,-0.018761,0.020210,-0.011771,-0.019584,-0.385646,-0.922439,0.001716,-0.001363,0.004669,13.329729,-3.434369,-31.007782,,,,,,,
1504196732.774786,-0.021002,0.395702,-2.825345,-0.034803,0.024589,0.003137,-0.019378,-0.385456,-0.922523,-0.000001,-0.002147,0.008002,13.329729,-3.434369,-31.007782,,,,,,,
1504196732.784796,-0.020739,0.395307,-2.825244,-0.051826,0.034302,0.010566,-0.019138,-0.385092,-0.922680,-0.001171,-0.001673,0.010769,13.704576,-3.507230,-31.231293,,,,,,,
1504196732.794806,-0.020348,0.394625,-2.825127,-0.083734,0.047351,0.011555,-0.018783,-0.384462,-0.922949,0.000304,-0.003340,0.007483,13.704576,-3.507230,-31.231293,,,,,,,
1504196732.804816,-0.019671,0.393782,-2.825115,-0.101605,0.073085,-0.000263,-0.018164,-0.383684,-0.923286,0.000372,-0.007170,0.005775,13.704912,-3.507688,-31.006287,,,,,,,
1504196732.814826,-0.018698,0.392880,-2.825302,-0.097078,0.093314,-0.019504,-0.017272,-0.382851,-0.923649,0.000015,-0.001274,0.010776,13.704912,-3.507688,-31.006287,,,,,,,
1504196732.824834,-0.017669,0.392197,-2.825644,-0.074739,0.078224,-0.030113,-0.016327,-0.382220,-0.923927,0.003052,-0.000318,0.016441,13.629381,-3.432569,-31.232056,,,,,,,
1504196732.834844,-0.016895,0.391744,-2.826128,-0.049442,0.033272,-0.039598,-0.015614,-0.381801,-0.924113,0.008763,-0.000004,0.016184,13.629381,-3.432569,-31.232056,,,,,,,
1504196732.844854,-0.016508,0.391577,-2.826687,-0.015660,-0.013886,-0.042660,-0.015258,-0.381647,-0.924182,0.013061,-0.000922,0.010349,13.854601,-3.431851,-31.081512,,,,,,,
1504196732.854864,-0.016514,0.391799,-2.827189,0.021396,-0.047227,-0.038269,-0.015262,-0.381851,-0.924098,0.012210,-0.001022,0.011698,13.854601,-3.431851,-31.081512,,,,,,,
1504196732.864874,-0.016868,0.392268,-2.827604,0.043576,-0.070858,-0.030718,-0.015586,-0.382285,-0.923913,0.009803,0.001289,0.013039,13.629274,-3.432416,-31.307068,,,,,,,
1504196732.874883,-0.017417,0.392840,-2.827897,0.053075,-0.077339,-0.020016,-0.016089,-0.382814,-0.923685,0.007651,0.001588,0.009409,13.629274,-3.432416,-31.307068,,,,,,,
1504196732.884893,-0.017971,0.393356,-2.828076,0.040324,-0.065520,-0.011521,-0.016597,-0.383290,-0.923479,0.005260,0.000417,0.009737,13.554873,-3.583051,-31.156097,,,,,,,
1504196732.894903,-0.018436,0.393577,-2.828139,0.006274,-0.048199,-0.002004,-0.017025,-0.383495,-0.923386,0.003399,0.000530,0.010529,13.554873,-3.583051,-31.156097,,,,,,,
1504196732.904913,-0.018743,0.393312,-2.828158,-0.042686,-0.030750,0.002150,-0.017310,-0.383250,-0.923482,0.002937,-0.000417,0.004781,13.554201,-3.357907,-31.232788,,,,,,,
1504196732.914922,-0.018911,0.392612,-2.828168,-0.078865,-0.018730,0.002065,-0.017471,-0.382603,-0.923748,0.003478,-0.001568,-0.001377,13.554201,-3.357907,-31.232788,,,,,,,
1504196732.924932,-0.018911,0.391635,-2.828217,-0.090458,-0.002646,-0.001185,-0.017478,-0.381700,-0.924121,0.002387,0.000383,-0.005673,13.330141,-3.733914,-31.230530,,,,,,,
1504196732.934942,-0.018751,0.390578,-2.828251,-0.088149,0.019712,-0.001221,-0.017338,-0.380723,-0.924527,0.000324,0.009491,-0.007022,13.330141,-3.733914,-31.230530,,,,,,,
1504196732.944952,-0.018561,0.389686,-2.828199,-0.052936,0.024743,0.005236,-0.017169,-0.379898,-0.924869,-0.002362,0.013153,-0.006558,13.629381,-3.432569,-31.232056,,,,,,,
1504196732.954962,-0.018397,0.389141,-2.828061,-0.016682,0.026568,0.011700,-0.017021,-0.379394,-0.925079,-0.003518,0.014221,-0.011765,13.629381,-3.432569,-31.232056,,,,,,,
1504196732.964972,-0.018345,0.388941,-2.827900,0.030151,0.013395,0.011805,-0.016974,-0.379209,-0.925155,-0.003702,0.019407,-0.013260,13.404345,-3.284024,-31.008728,,,,,,,
1504196732.974982,-0.018416,0.389139,-2.827797,0.064141,-0.008192,0.006565,-0.017038,-0.379392,-0.925079,-0.000769,0.018537,-0.011933,13.404345,-3.284024,-31.008728,,,,,,,
1504196732.984992,-0.018686,0.389588,-2.827801,0.083165,-0.036044,-0.002959,-0.017284,-0.379807,-0.924904,0.001553,0.017853,-0.011421,13.479906,-3.508695,-31.006836,,,,,,,
1504196732.995000,-0.019142,0.390129,-2.827868,0.088361,-0.055263,-0.007186,-0.017702,-0.380307,-0.924691,0.001879,0.017316,-0.010795,13.479906,-3.508695,-31.006836,,,,,,,
1504196733.005010,-0.019654,0.390682,-2.827915,0.078762,-0.053054,-0.005072,-0.018172,-0.380819,-0.924471,0.001418,0.012289,-0.010954,13.329760,-3.583920,-31.231659,,,,,,,
1504196733.015020,-0.020022,0.391173,-2.827901,0.065090,-0.025241,-0.000875,-0.018508,-0.381273,-0.924277,-0.002229,0.009157,-0.008370,13.329760,-3.583920,-31.231659,,,,,,,
1504196733.025030,-0.020112,0.391584,-2.827797,0.047212,0.012193,0.006501,-0.018588,-0.381653,-0.924119,-0.005689,0.005280,-0.005111,13.554384,-3.432904,-31.232239,,,,,,,
1504196733.035040,-0.019967,0.391894,-2.827593,0.035618,0.036785,0.017112,-0.018452,-0.381939,-0.924003,-0.006710,0.003094,-0.001183,13.554384,-3.432904,-31.232239,,,,,,,
1504196733.045049,-0.019731,0.392191,-2.827293,0.029195,0.040024,0.026702,-0.018232,-0.382214,-0.923894,-0.003848,0.002453,0.005483,13.479464,-3.508100,-31.306854,,,,,,,
1504196733.055059,-0.019616,0.392502,-2.826947,0.024712,0.017676,0.034205,-0.018123,-0.382501,-0.923777,0.000316,0.001840,0.013804,13.479464,-3.508100,-31.306854,,,,,,,
1504196733.065069,-0.019851,0.392828,-2.826587,0.025316,-0.037743,0.038573,-0.018338,-0.382802,-0.923648,0.007855,0.004110,0.021228,13.704729,-3.656934,-31.380157,,,,,,,
1504196733.075048,-0.020678,0.393165,-2.826258,0.024693,-0.114460,0.040841,-0.019099,-0.383114,-0.923504,0.015848,0.004361,0.025158,13.405443,-3.808728,-31.154785,,,,,,,
1504196733.085058,-0.022273,0.393537,-2.825968,0.030374,-0.206141,0.038875,-0.020569,-0.383457,-0.923330,0.022293,0.004093,0.024068,13.405443,-3.808728,-31.154785,,,,,,,
1504196733.095068,-0.024696,0.394028,-2.825720,0.053160,-0.292635,0.037998,-0.022801,-0.383911,-0.923089,0.026280,0.007034,0.021126,13.554949,-3.657910,-31.230530,,,,,,,
1504196733.105078,-0.027817,0.394705,-2.825503,0.087942,-0.350451,0.030686,-0.025674,-0.384536,-0.922753,0.024973,0.014572,0.018105,13.554949,-3.657910,-31.230530,,,,,,,
1504196733.115088,-0.031069,0.395649,-2.825367,0.119050,-0.337901,0.016840,-0.028664,-0.385407,-0.922301,0.020027,0.020340,0.019775,13.255068,-3.659406,-31.156281,,,,,,,
1504196733.125098,-0.033598,0.396662,-2.825282,0.117901,-0.221728,0.004891,-0.030984,-0.386341,-0.921835,0.006432,0.019535,0.018652,13.255068,-3.659406,-31.156281,,,,,,,
1504196733.135108,-0.034763,0.397348,-2.825104,0.070257,-0.041253,0.005559,-0.032048,-0.386974,-0.921533,-0.012690,0.016827,0.013300,12.880632,-3.886090,-31.155518,,,,,,,
1504196733.145116,-0.034377,0.397306,-2.824677,-0.014793,0.143767,0.026436,-0.031693,-0.386935,-0.921562,-0.028228,0.007739,0.004204,12.880632,-3.886090,-31.155518,,,,,,,
1504196733.155126,-0.032038,0.396406,-2.824136,-0.111969,0.288387,0.061237,-0.029548,-0.386106,-0.921981,-0.034630,-0.006869,-0.003709,13.104952,-3.659925,-31.231659,,,,,,,
1504196733.165136,-0.028778,0.394715,-2.823269,-0.183955,0.378459,0.091908,-0.026561,-0.384545,-0.922724,-0.031514,-0.013450,-0.002920,13.104952,-3.659925,-31.231659,,,,,,,
1504196733.175146,-0.025136,0.392554,-2.822175,-0.221138,0.409649,0.109934,-0.023221,-0.382549,-0.923643,-0.023013,-0.016926,0.002394,13.179125,-3.509000,-31.532593,,,,,,,
1504196733.185155,-0.021919,0.390568,-2.820955,-0.227774,0.377735,0.106778,-0.020267,-0.380714,-0.924471,-0.014203,-0.018059,0.007204,13.179125,-3.509000,-31.532593,,,,,,,
1504196733.195165,-0.019200,0.388430,-2.819990,-0.202840,0.281646,0.087777,-0.017768,-0.378736,-0.925334,-0.004311,-0.012072,0.005916,13.705065,-3.657376,-31.155151,,,,,,,
1504196733.205175,-0.017677,0.386846,-2.819335,-0.139805,0.138371,0.055050,-0.016370,-0.377270,-0.925959,0.005277,-0.006443,0.006907,13.705065,-3.657376,-31.155151,,,,,,,
1504196733.215185,-0.017650,0.386037,-2.819028,-0.055615,-0.028521,0.021333,-0.016350,-0.376520,-0.926264,0.011971,-0.002112,0.006587,14.004488,-3.431027,-31.156097,,,,,,,
1504196733.225195,-0.018729,0.386228,-2.819173,0.040487,-0.172066,-0.010271,-0.017348,-0.376697,-0.926174,0.016158,0.001468,0.006878,14.004488,-3.431027,-31.156097,,,,,,,
1504196733.235204,-0.021014,0.387248,-2.819462,0.118888,-0.255804,-0.033470,-0.019456,-0.377642,-0.925747,0.012773,0.002703,0.007916,13.629564,-3.507565,-31.231476,,,,,,,
1504196733.245214,-0.023572,0.388746,-2.819896,0.155097,-0.272073,-0.046188,-0.021811,-0.379028,-0.925128,0.003805,0.004425,0.006137,13.629564,-3.507565,-31.231476,,,,,,,
1504196733.255224,-0.025849,0.390257,-2.820339,0.145820,-0.229376,-0.043077,-0.023903,-0.380426,-0.924502,-0.005669,0.001551,-0.003568,13.404497,-3.433728,-31.157593,,,,,,,
1504196733.265234,-0.027679,0.391494,-2.820513,0.109159,-0.134257,-0.027295,-0.025582,-0.381569,-0.923986,-0.016334,-0.005058,-0.008356,13.404497,-3.433728,-31.157593,,,,,,,
1504196733.275244,-0.028129,0.392151,-2.820584,0.049132,-0.019769,-0.001983,-0.025990,-0.382177,-0.923724,-0.024868,-0.009562,-0.005643,13.255297,-3.659711,-31.006287,,,,,,,
1504196733.285254,-0.027706,0.392108,-2.820383,-0.020698,0.070289,0.024422,-0.025600,-0.382137,-0.923751,-0.026234,-0.013645,-0.002900,13.255297,-3.659711,-31.006287,,,,,,,
1504196733.295264,-0.026744,0.391606,-2.820007,-0.060927,0.119621,0.040276,-0.024716,-0.381673,-0.923967,-0.019031,-0.016398,-0.000456,13.180071,-3.659741,-31.156464,,,,,,,
1504196733.305274,-0.025810,0.390998,-2.819470,-0.101439,0.127404,0.047665,-0.023859,-0.381112,-0.924221,-0.008154,-0.016319,0.005810,13.180071,-3.659741,-31.156464,,,,,,,
1504196733.315282,-0.024881,0.390237,-2.819042,-0.110259,0.089120,0.044514,-0.023008,-0.380408,-0.924533,0.004056,-0.015009,0.009173,13.629869,-3.582715,-31.155914,,,,,,,
1504196733.325292,-0.024399,0.389457,-2.818751,-0.093709,0.017602,0.035061,-0.022570,-0.379686,-0.924840,0.012499,-0.008741,0.008916,13.629869,-3.582715,-31.155914,,,,,,,
1504196733.335302,-0.024454,0.388966,-2.818668,-0.050479,-0.056260,0.020320,-0.022625,-0.379231,-0.925025,0.020061,-0.003337,0.009773,13.404757,-3.583585,-31.231476,,,,,,,
1504196733.345312,-0.024968,0.388950,-2.818705,0.006786,-0.104669,0.013030,-0.023101,-0.379217,-0.925020,0.023543,0.001897,0.012910,13.404757,-3.583585,-31.231476,,,,,,,
1504196733.355322,-0.025806,0.389406,-2.818706,0.055819,-0.112524,0.009925,-0.023872,-0.379639,-0.924827,0.016959,0.005387,0.013739,13.404955,-3.658582,-31.230927,,,,,,,
1504196733.365331,-0.026574,0.390134,-2.818700,0.079632,-0.076477,-0.000772,-0.024574,-0.380312,-0.924532,0.005791,0.006441,0.009050,13.404955,-3.658582,-31.230927,,,,,,,
1504196733.375341,-0.026886,0.390807,-2.818748,0.065235,-0.013481,-0.008379,-0.024856,-0.380934,-0.924268,-0.001176,0.004225,0.002805,13.404238,-3.508130,-31.457031,,,,,,,
1504196733.385351,-0.026699,0.391092,-2.818727,0.024125,0.051852,-0.004295,-0.024680,-0.381198,-0.924164,-0.010476,0.000781,-0.007431,13.404238,-3.508130,-31.457031,,,,,,,
1504196733.395361,-0.026180,0.390881,-2.818549,-0.032125,0.097053,0.008338,-0.024202,-0.381003,-0.924257,-0.017042,-0.005426,-0.012251,13.405107,-3.808286,-31.379791,,,,,,,
1504196733.405370,-0.025413,0.390333,-2.818243,-0.072558,0.118681,0.021041,-0.023499,-0.380497,-0.924484,-0.016693,-0.009762,-0.013276,13.405107,-3.808286,-31.379791,,,,,,,
1504196733.415380,-0.024578,0.389497,-2.817880,-0.094992,0.118855,0.027407,-0.022735,-0.379723,-0.924821,-0.014145,-0.011604,-0.012069,13.254992,-3.584561,-31.081848,,,,,,,
1504196733.425359,-0.023884,0.388792,-2.817560,-0.077032,0.093136,0.022148,-0.022100,-0.379071,-0.925104,-0.011500,-0.009326,-0.006415,13.254992,-3.584561,-31.081848,,,,,,,
1504196733.435369,-0.023405,0.388320,-2.817377,-0.038883,0.054468,0.012676,-0.021660,-0.378634,-0.925293,-0.005744,-0.005857,-0.006302,13.630281,-3.658017,-31.005341,,,,,,,
1504196733.445379,-0.023233,0.388362,-2.817283,0.019587,0.022027,0.003229,-0.021501,-0.378673,-0.925281,-0.005553,-0.000905,-0.003598,13.630281,-3.658017,-31.005341,,,,,,,
1504196733.455389,-0.023324,0.389004,-2.817239,0.074847,-0.008261,-0.000891,-0.021580,-0.379267,-0.925036,-0.003979,0.001490,0.004854,13.329912,-3.509366,-31.007233,,,,,,,
1504196733.465399,-0.023769,0.389962,-2.817171,0.094874,-0.038266,0.000264,-0.021983,-0.380153,-0.924662,-0.005209,-0.000324,0.001490,13.329912,-3.509366,-31.007233,,,,,,,
1504196733.475408,-0.024335,0.391058,-2.817089,0.115087,-0.044828,0.001379,-0.022496,-0.381166,-0.924233,-0.005626,-0.001738,-0.007469,13.629946,-3.657575,-31.230347,,,,,,,
1504196733.485418,-0.024896,0.392114,-2.816984,0.098072,-0.037232,0.002404,-0.023004,-0.382143,-0.923817,-0.006720,-0.003706,-0.006878,13.629946,-3.657575,-31.230347,,,,,,,
1504196733.495428,-0.025269,0.392944,-2.816878,0.070536,-0.012497,0.001246,-0.023341,-0.382910,-0.923491,-0.007787,-0.004145,-0.005129,13.255632,-3.884412,-31.154572,,,,,,,
1504196733.505437,-0.025267,0.393322,-2.816786,0.020727,0.029469,0.001087,-0.023335,-0.383259,-0.923346,-0.008922,-0.007213,-0.009668,13.255632,-3.884412,-31.154572,,,,,,,
1504196733.515447,-0.024898,0.393413,-2.816673,-0.012084,0.064898,0.005238,-0.022993,-0.383343,-0.923320,-0.009477,-0.010883,-0.010640,13.404955,-3.658582,-31.230927,,,,,,,
1504196733.525457,-0.024232,0.393216,-2.816501,-0.032168,0.092759,0.012627,-0.022381,-0.383161,-0.923410,-0.009358,-0.010669,-0.005468,13.404955,-3.658582,-31.230927,,,,,,,
1504196733.535467,-0.023490,0.392991,-2.816278,-0.033221,0.097024,0.016888,-0.021698,-0.382953,-0.923513,-0.008347,-0.007122,-0.003703,13.255632,-3.884412,-31.154572,,,,,,,
1504196733.545477,-0.022779,0.392864,-2.816021,-0.006655,0.086143,0.021223,-0.021042,-0.382835,-0.923577,-0.006012,-0.002296,0.000252,13.255632,-3.884412,-31.154572,,,,,,,
1504196733.555486,-0.022207,0.393049,-2.815700,0.023066,0.070972,0.027707,-0.020512,-0.383007,-0.923518,-0.003918,0.000667,0.004039,13.480700,-3.958249,-31.228485,,,,,,,
1504196733.565496,-0.021830,0.393527,-2.815342,0.055966,0.050452,0.029935,-0.020159,-0.383448,-0.923342,-0.002988,0.002299,0.005496,13.480700,-3.958249,-31.228485,,,,,,,
1504196733.575506,-0.021694,0.394144,-2.815065,0.070705,0.018374,0.018276,-0.020029,-0.384018,-0.923108,-0.002203,0.005035,0.005109,13.255068,-3.659406,-31.156281,,,,,,,
1504196733.585516,-0.021807,0.394857,-2.814963,0.080088,-0.016855,0.005545,-0.020127,-0.384676,-0.922832,0.000718,0.004687,0.000881,13.255068,-3.659406,-31.156281,,,,,,,
1504196733.595507,-0.022167,0.395525,-2.814976,0.067089,-0.046575,-0.002964,-0.020454,-0.385293,-0.922568,0.002098,0.001427,0.001151,13.480516,-3.883252,-31.229034,,,,,,,
1504196733.605517,-0.022756,0.396254,-2.814997,0.070163,-0.062584,-0.002931,-0.020991,-0.385965,-0.922274,0.000468,0.000040,0.002139,13.480516,-3.883252,-31.229034,,,,,,,
1504196733.615527,-0.023389,0.396915,-2.814931,0.063796,-0.052951,0.005581,-0.021568,-0.386575,-0.922006,-0.001442,-0.000754,0.000054,13.330400,-3.883771,-31.304413,,,,,,,
1504196733.625537,-0.023881,0.397525,-2.814735,0.062955,-0.019920,0.012994,-0.022016,-0.387137,-0.921759,-0.007128,0.002936,0.000174,13.330400,-3.883771,-31.304413,,,,,,,
1504196733.635546,-0.024051,0.398110,-2.814449,0.065371,0.019478,0.019334,-0.022168,-0.387677,-0.921529,-0.010150,0.004499,0.002568,13.480410,-3.883100,-31.304047,,,,,,,
1504196733.645556,-0.023888,0.398652,-2.814142,0.050721,0.054762,0.018180,-0.022013,-0.388177,-0.921322,-0.011556,0.005471,0.004620,13.480410,-3.883100,-31.304047,,,,,,,
1504196733.655566,-0.023456,0.399010,-2.813917,0.041269,0.069763,0.011734,-0.021611,-0.388506,-0.921193,-0.009349,0.004855,0.002308,13.406084,-4.108579,-31.227539,,,,,,,
1504196733.665576,-0.022944,0.399183,-2.813753,0.014574,0.065721,0.009561,-0.021138,-0.388665,-0.921136,-0.006740,0.003732,0.002298,13.406084,-4.108579,-31.227539,,,,,,,
1504196733.675585,-0.022455,0.399273,-2.813650,0.007073,0.058328,0.004224,-0.020687,-0.388748,-0.921112,-0.005162,-0.000351,0.002105,13.555742,-3.883206,-31.078857,,,,,,,
1504196733.685595,-0.022063,0.399373,-2.813592,0.009023,0.035933,0.005335,-0.020325,-0.388841,-0.921081,-0.000656,-0.000747,0.003493,13.555742,-3.883206,-31.078857,,,,,,,
1504196733.695605,-0.021875,0.399699,-2.813522,0.034433,0.013343,0.008620,-0.020149,-0.389141,-0.920958,0.001778,0.001186,0.005873,13.705400,-3.657834,-30.930176,,,,,,,
1504196733.705615,-0.021890,0.400221,-2.813422,0.055545,-0.012409,0.012971,-0.020159,-0.389622,-0.920754,0.005709,0.003285,0.012383,13.705400,-3.657834,-30.930176,,,,,,,
1504196733.715625,-0.022134,0.400975,-2.813293,0.073493,-0.034935,0.015176,-0.020377,-0.390316,-0.920455,0.006629,0.003506,0.011718,13.480745,-3.883542,-31.079041,,,,,,,
1504196733.725634,-0.022538,0.401716,-2.813160,0.069124,-0.047684,0.015191,-0.020742,-0.390998,-0.920158,0.006169,0.001457,0.009895,13.480745,-3.883542,-31.079041,,,,,,,
1504196733.735644,-0.023089,0.402424,-2.812992,0.058361,-0.058253,0.017325,-0.021243,-0.391650,-0.919869,0.005206,-0.000211,0.013039,13.705629,-3.882382,-31.153473,,,,,,,
1504196733.745654,-0.023739,0.402994,-2.812827,0.043381,-0.064521,0.016242,-0.021835,-0.392175,-0.919632,0.003723,-0.000480,0.013549,13.705629,-3.882382,-31.153473,,,,,,,
1504196733.755664,-0.024370,0.403503,-2.812670,0.037052,-0.057007,0.014083,-0.022411,-0.392642,-0.919418,0.002330,-0.000897,0.015884,13.406115,-4.033887,-31.078094,,,,,,,
1504196733.765673,-0.024806,0.403947,-2.812514,0.028777,-0.026034,0.011879,-0.022807,-0.393051,-0.919234,-0.001043,0.000351,0.020842,13.406115,-4.033887,-31.078094,,,,,,,
1504196733.775653,-0.025004,0.404351,-2.812352,0.022583,-0.000410,0.011824,-0.022985,-0.393422,-0.919070,-0.002802,0.000127,0.021945,13.555620,-3.883054,-31.153839,,,,,,,
1504196733.785662,-0.024985,0.404617,-2.812182,0.008923,0.024202,0.010694,-0.022965,-0.393666,-0.918967,-0.006118,-0.000422,0.019827,13.555620,-3.883054,-31.153839,,,,,,,
1504196733.795672,-0.024853,0.404628,-2.812012,-0.013425,0.031842,0.011710,-0.022843,-0.393677,-0.918965,-0.006377,0.000748,0.014821,13.330523,-3.883924,-31.229401,,,,,,,
1504196733.805682,-0.024829,0.404513,-2.811835,-0.018957,0.008441,0.013877,-0.022823,-0.393572,-0.919011,-0.004475,0.001085,0.010212,13.330523,-3.883924,-31.229401,,,,,,,
1504196733.815692,-0.025112,0.404428,-2.811675,-0.008594,-0.030006,0.013962,-0.023084,-0.393493,-0.919038,-0.001223,0.000015,0.010545,13.630846,-3.883023,-31.003662,,,,,,,
1504196733.825701,-0.025736,0.404591,-2.811564,0.013532,-0.068544,0.008732,-0.023656,-0.393643,-0.918959,0.001897,0.000866,0.013670,13.630846,-3.883023,-31.003662,,,,,,,
1504196733.835711,-0.026639,0.404939,-2.811557,0.037893,-0.097504,-0.001849,-0.024481,-0.393963,-0.918800,0.002204,0.004589,0.014107,13.706194,-4.107388,-31.151794,,,,,,,
1504196733.845721,-0.027669,0.405440,-2.811672,0.048488,-0.113564,-0.012477,-0.025423,-0.394423,-0.918577,0.003007,0.004714,0.015165,13.706194,-4.107388,-31.151794,,,,,,,
1504196733.855731,-0.028678,0.405931,-2.811844,0.046404,-0.109280,-0.015691,-0.026344,-0.394874,-0.918358,0.002830,0.004676,0.011863,13.555483,-3.733350,-31.004974,,,,,,,
1504196733.865741,-0.029624,0.406350,-2.811939,0.033719,-0.090003,-0.008275,-0.027208,-0.395259,-0.918166,-0.000121,0.001506,0.009918,13.555483,-3.733350,-31.004974,,,,,,,
1504196733.875750,-0.030344,0.406625,-2.811905,0.010508,-0.051461,0.001224,-0.027866,-0.395511,-0.918038,-0.004406,-0.002041,0.009652,13.555666,-3.808362,-31.004425,,,,,,,
1504196733.885760,-0.030670,0.406608,-2.811769,-0.026497,-0.004281,0.009617,-0.028165,-0.395496,-0.918036,-0.006808,-0.004437,0.011053,13.555666,-3.808362,-31.004425,,,,,,,
1504196733.895770,-0.030634,0.406315,-2.811599,-0.048628,0.031062,0.011652,-0.028136,-0.395227,-0.918152,-0.007341,-0.004507,0.011109,13.705858,-3.882688,-31.003479,,,,,,,
1504196733.905780,-0.030368,0.405732,-2.811440,-0.077289,0.048347,0.010505,-0.027898,-0.394691,-0.918390,-0.007517,-0.005348,0.009790,13.705858,-3.882688,-31.003479,,,,,,,
1504196733.915789,-0.029995,0.404964,-2.811317,-0.087987,0.045237,0.011560,-0.027565,-0.393986,-0.918703,-0.003197,-0.002651,0.009417,13.481050,-3.958692,-31.003479,,,,,,,
1504196733.925799,-0.029802,0.404202,-2.811227,-0.077489,0.021710,0.008417,-0.027396,-0.393285,-0.919008,-0.002450,-0.000162,0.007570,13.481050,-3.958692,-31.003479,,,,,,,
1504196733.935809,-0.029815,0.403604,-2.811215,-0.049877,-0.000885,-0.002169,-0.027415,-0.392735,-0.919243,-0.003224,0.003087,0.004295,13.705477,-3.732678,-31.004608,,,,,,,
1504196733.945819,-0.029913,0.403338,-2.811291,-0.011480,-0.007587,-0.010629,-0.027508,-0.392491,-0.919345,-0.003742,0.006382,0.005313,13.705477,-3.732678,-31.004608,,,,,,,
1504196733.955828,-0.030081,0.403419,-2.811366,0.016274,-0.007814,-0.013782,-0.027662,-0.392565,-0.919308,-0.006792,0.006929,0.010785,13.480516,-3.883252,-31.229034,,,,,,,
1504196733.965838,-0.030286,0.403581,-2.811477,0.017331,-0.011018,-0.016976,-0.027848,-0.392714,-0.919239,-0.008971,0.003814,0.008228,13.480516,-3.883252,-31.229034,,,,,,,
1504196733.975848,-0.030453,0.403635,-2.811651,-0.002974,-0.017243,-0.020201,-0.028001,-0.392764,-0.919213,-0.005141,-0.000577,0.002343,13.705172,-3.657529,-31.080170,,,,,,,
1504196733.985858,-0.030665,0.403551,-2.811820,-0.020123,-0.024565,-0.015948,-0.028197,-0.392687,-0.919240,-0.001893,-0.003492,0.001561,13.705172,-3.657529,-31.080170,,,,,,,
1504196733.995867,-0.030938,0.403278,-2.811945,-0.035075,-0.024447,-0.012772,-0.028452,-0.392436,-0.919339,-0.004034,-0.001958,0.002133,13.480333,-3.808240,-31.229614,,,,,,,
1504196734.005877,-0.031063,0.402893,-2.812024,-0.042404,-0.003082,-0.006418,-0.028571,-0.392081,-0.919487,-0.003808,-0.002450,0.000297,13.480333,-3.808240,-31.229614,,,,,,,
1504196734.015887,-0.031030,0.402569,-2.811963,-0.043300,0.024618,0.004207,-0.028545,-0.391783,-0.919615,-0.007130,-0.004701,0.005873,13.330324,-3.808911,-31.229980,,,,,,,
1504196734.025897,-0.030834,0.402229,-2.811798,-0.049605,0.041709,0.012706,-0.028369,-0.391470,-0.919753,-0.008039,-0.005655,0.009490,13.330324,-3.808911,-31.229980,,,,,,,
1504196734.035907,-0.030585,0.401789,-2.811655,-0.049569,0.042778,0.007368,-0.028145,-0.391066,-0.919932,-0.007912,-0.004518,0.000575,13.630510,-3.882565,-31.228668,,,,,,,
1504196734.045916,-0.030357,0.401350,-2.811626,-0.040036,0.028854,-0.001130,-0.027940,-0.390662,-0.920110,-0.005355,0.000128,-0.002390,13.630510,-3.882565,-31.228668,,,,,,,
1504196734.055926,-0.030251,0.401184,-2.811669,-0.007129,0.005144,-0.005300,-0.027844,-0.390508,-0.920178,-0.001956,0.000692,0.003995,13.630068,-3.657712,-31.155334,,,,,,,
1504196734.065936,-0.030384,0.401197,-2.811721,0.002283,-0.019441,-0.006308,-0.027967,-0.390521,-0.920169,-0.001253,0.000750,0.005557,13.630068,-3.657712,-31.155334,,,,,,,
1504196734.075946,-0.030631,0.401215,-2.811813,0.002253,-0.025831,-0.010566,-0.028195,-0.390537,-0.920155,-0.001453,-0.000286,-0.000209,13.404955,-3.658582,-31.230927,,,,,,,
1504196734.085955,-0.030782,0.401213,-2.811908,0.000331,-0.001304,-0.013814,-0.028333,-0.390535,-0.920152,-0.006701,0.000887,-0.000579,13.404955,-3.658582,-31.230927,,,,,,,
1504196734.095965,-0.030641,0.401257,-2.811968,-0.002556,0.039207,-0.011755,-0.028203,-0.390576,-0.920139,-0.010829,0.000088,0.007221,13.480028,-3.733090,-31.305176,,,,,,,
1504196734.105975,-0.030251,0.401243,-2.811922,-0.019472,0.064907,-0.001154,-0.027844,-0.390563,-0.920155,-0.011722,-0.004075,0.011265,13.480028,-3.733090,-31.305176,,,,,,,
1504196734.115985,-0.029777,0.400969,-2.811816,-0.046204,0.061921,0.006277,-0.027412,-0.390311,-0.920275,-0.009301,-0.005563,0.007830,13.254946,-3.659253,-31.231293,,,,,,,
1504196734.125994,-0.029374,0.400358,-2.811721,-0.061273,0.046059,0.007347,-0.027047,-0.389748,-0.920524,-0.005271,-0.002510,-0.002907,13.254946,-3.659253,-31.231293,,,,,,,
1504196734.135974,-0.029088,0.399885,-2.811684,-0.045393,0.027817,0.003137,-0.026789,-0.389312,-0.920716,-0.001836,-0.001603,-0.001113,13.329729,-3.658612,-31.381104,,,,,,,
1504196734.145983,-0.029049,0.399592,-2.811673,-0.026395,-0.000043,0.000017,-0.026757,-0.389042,-0.920831,-0.001075,0.001774,0.008173,13.329729,-3.658612,-31.381104,,,,,,,
1504196734.155993,-0.029298,0.399465,-2.811708,-0.006306,-0.026842,-0.006305,-0.026988,-0.388926,-0.920874,-0.002294,0.004557,0.009176,13.404757,-3.583585,-31.231476,,,,,,,
1504196734.166003,-0.029574,0.399590,-2.811813,0.020437,-0.022793,-0.013737,-0.027240,-0.389041,-0.920818,-0.003552,0.004641,0.008800,13.404757,-3.583585,-31.231476,,,,,,,
1504196734.176013,-0.029813,0.400012,-2.811839,0.040781,-0.009117,-0.006253,-0.027455,-0.389429,-0.920647,-0.006724,0.003824,0.015114,13.255251,-3.734403,-31.155701,,,,,,,
1504196734.186023,-0.030090,0.400420,-2.811738,0.026897,-0.005818,0.002257,-0.027705,-0.389805,-0.920481,-0.011449,0.003300,0.020304,13.255251,-3.734403,-31.155701,,,,,,,
1504196734.196032,-0.030403,0.400447,-2.811664,-0.017988,-0.017169,-0.001002,-0.027994,-0.389830,-0.920461,-0.008978,-0.001207,0.011007,13.179949,-3.659589,-31.231476,,,,,,,
1504196734.206042,-0.030654,0.400000,-2.811711,-0.055259,-0.013658,-0.009611,-0.028230,-0.389419,-0.920628,-0.006927,-0.002274,-0.000118,13.179949,-3.659589,-31.231476,,,,,,,
1504196734.216052,-0.030726,0.399450,-2.811806,-0.061478,0.007706,-0.011793,-0.028303,-0.388912,-0.920840,-0.008044,-0.002919,0.003283,13.406343,-4.034177,-30.928101,,,,,,,
1504196734.226062,-0.030739,0.399049,-2.811837,-0.047516,0.020372,-0.009655,-0.028319,-0.388542,-0.920996,-0.013017,-0.001427,0.014395,13.406343,-4.034177,-30.928101,,,,,,,
1504196734.236071,-0.030761,0.398718,-2.811831,-0.034723,0.020261,-0.007497,-0.028343,-0.388237,-0.921123,-0.014229,0.001961,0.014767,13.479845,-3.658093,-31.305725,,,,,,,
1504196734.246081,-0.030808,0.398481,-2.811867,-0.024100,0.011650,-0.011731,-0.028390,-0.388019,-0.921214,-0.011969,0.001880,0.010020,13.479845,-3.658093,-31.305725,,,,,,,
1504196734.256091,-0.030890,0.398342,-2.811967,-0.013451,0.005173,-0.018104,-0.028467,-0.387891,-0.921266,-0.011251,0.003705,0.010270,13.479616,-3.433545,-31.082428,,,,,,,
1504196734.266101,-0.031026,0.398242,-2.812176,-0.014580,-0.008663,-0.027688,-0.028593,-0.387798,-0.921301,-0.009752,0.002865,0.012029,13.479616,-3.433545,-31.082428,,,,,,,
1504196734.276110,-0.031272,0.398084,-2.812493,-0.024230,-0.021363,-0.038355,-0.028822,-0.387653,-0.921355,-0.011141,0.000400,0.009322,13.255098,-3.584699,-31.006836,,,,,,,
1504196734.286120,-0.031536,0.397770,-2.812853,-0.043396,-0.018009,-0.040527,-0.029069,-0.387364,-0.921469,-0.011886,-0.002590,0.005392,13.255098,-3.584699,-31.006836,,,,,,,
1504196734.296130,-0.031621,0.397528,-2.813187,-0.036773,0.010702,-0.038430,-0.029150,-0.387141,-0.921560,-0.014765,-0.004537,0.008001,13.179384,-3.434598,-31.233154,,,,,,,
1504196734.306140,-0.031448,0.397290,-2.813469,-0.042890,0.045912,-0.038501,-0.028994,-0.386920,-0.921657,-0.019651,-0.004254,0.014492,13.179384,-3.434598,-31.233154,,,,,,,
1504196734.316149,-0.031014,0.396870,-2.813731,-0.061934,0.068438,-0.034302,-0.028599,-0.386534,-0.921832,-0.019558,-0.005358,0.010623,13.480059,-3.658399,-31.155701,,,,,,,
1504196734.326159,-0.030435,0.396333,-2.813960,-0.067171,0.082326,-0.031132,-0.028071,-0.386038,-0.922056,-0.019384,-0.006769,0.004148,13.480059,-3.658399,-31.155701,,,,,,,
1504196734.336169,-0.029891,0.395854,-2.814190,-0.060842,0.071615,-0.033235,-0.027575,-0.385596,-0.922255,-0.019544,-0.004693,0.011336,13.780169,-3.657193,-31.079987,,,,,,,
1504196734.346179,-0.029451,0.395443,-2.814545,-0.048167,0.048076,-0.044911,-0.027174,-0.385217,-0.922426,-0.014788,-0.000510,0.013307,13.780169,-3.657193,-31.079987,,,,,,,
1504196734.356189,-0.029194,0.395203,-2.815076,-0.024871,0.015930,-0.060824,-0.026940,-0.384996,-0.922525,-0.012015,0.000474,0.010263,13.554873,-3.583051,-31.156097,,,,,,,
1504196734.366198,-0.029209,0.395155,-2.815733,-0.006982,-0.019379,-0.067134,-0.026954,-0.384951,-0.922543,-0.010002,0.000811,0.013623,13.554873,-3.583051,-31.156097,,,,,,,
1504196734.376208,-0.029606,0.395316,-2.816355,-0.005131,-0.052435,-0.062802,-0.027319,-0.385100,-0.922470,-0.010157,-0.004777,0.013886,13.330660,-3.809369,-31.004974,,,,,,,
1504196734.386218,-0.030307,0.395405,-2.816899,-0.015968,-0.070470,-0.057450,-0.027964,-0.385182,-0.922417,-0.014303,-0.007854,0.012398,13.330660,-3.809369,-31.004974,,,,,,,
1504196734.396228,-0.031082,0.395313,-2.817299,-0.038324,-0.057515,-0.045769,-0.028680,-0.385097,-0.922430,-0.018393,-0.009267,0.011679,13.704500,-3.432385,-31.156860,,,,,,,
1504196734.406237,-0.031761,0.395094,-2.817509,-0.058305,-0.015810,-0.036267,-0.029309,-0.384895,-0.922495,-0.030170,-0.014839,0.012262,13.704500,-3.432385,-31.156860,,,,,,,
1504196734.416247,-0.032162,0.394745,-2.817669,-0.075032,0.023750,-0.040632,-0.029683,-0.384573,-0.922617,-0.038203,-0.016596,0.014872,13.479052,-3.208539,-31.084106,,,,,,,
1504196734.426257,-0.032352,0.394374,-2.817933,-0.071656,0.037577,-0.052388,-0.029863,-0.384231,-0.922754,-0.040159,-0.016084,0.016718,13.479052,-3.208539,-31.084106,,,,,,,
1504196734.436267,-0.032469,0.394134,-2.818405,-0.055645,0.025734,-0.071549,-0.029974,-0.384009,-0.922843,-0.037653,-0.014337,0.019049,13.554613,-3.433209,-31.082245,,,,,,,
1504196734.446276,-0.032737,0.394112,-2.819105,-0.045194,-0.013769,-0.089604,-0.030222,-0.383988,-0.922843,-0.031897,-0.015960,0.025733,13.554613,-3.433209,-31.082245,,,,,,,
1504196734.456286,-0.033343,0.394120,-2.820092,-0.042318,-0.069187,-0.111914,-0.030781,-0.383995,-0.922822,-0.025524,-0.016380,0.022095,13.704576,-3.282971,-30.858002,,,,,,,
1504196734.466296,-0.034207,0.394026,-2.821293,-0.049987,-0.104279,-0.126807,-0.031579,-0.383909,-0.922831,-0.020972,-0.015184,0.016596,13.704576,-3.282971,-30.858002,,,,,,,
1504196734.476306,-0.035118,0.393778,-2.822635,-0.068121,-0.110518,-0.136433,-0.032424,-0.383680,-0.922897,-0.018830,-0.012728,0.020935,13.329348,-3.284360,-31.008911,,,,,,,
1504196734.486315,-0.035819,0.393159,-2.823952,-0.097801,-0.081516,-0.127994,-0.033079,-0.383108,-0.923111,-0.018908,-0.010355,0.013153,13.329348,-3.284360,-31.008911,,,,,,,
1504196734.496295,-0.036300,0.392184,-2.825017,-0.116838,-0.044097,-0.101406,-0.033537,-0.382208,-0.923468,-0.023058,-0.007761,0.000769,13.254732,-3.434705,-31.007965,,,,,,,
1504196734.506304,-0.036693,0.391081,-2.825777,-0.118981,-0.028130,-0.073682,-0.033915,-0.381188,-0.923875,-0.023595,-0.004707,-0.001036,13.254732,-3.434705,-31.007965,,,,,,,
1504196734.516314,-0.037122,0.389941,-2.826271,-0.107400,-0.031453,-0.048036,-0.034327,-0.380134,-0.924294,-0.020101,0.000403,-0.005286,13.478441,-3.058240,-31.235229,,,,,,,
1504196734.526324,-0.037611,0.388867,-2.826613,-0.091522,-0.039060,-0.035184,-0.034795,-0.379141,-0.924685,-0.016353,0.003484,-0.005628,13.478441,-3.058240,-31.235229,,,,,,,
1504196734.536334,-0.038195,0.388138,-2.826848,-0.059632,-0.048924,-0.027638,-0.035346,-0.378465,-0.924940,-0.013803,0.003481,-0.005876,13.328035,-2.759366,-31.012848,,,,,,,
1504196734.546344,-0.038876,0.387579,-2.827064,-0.036201,-0.054448,-0.028653,-0.035984,-0.377948,-0.925127,-0.015148,0.007144,-0.003675,13.328035,-2.759366,-31.012848,,,,,,,
1504196734.556353,-0.039629,0.387221,-2.827303,-0.017111,-0.068460,-0.028593,-0.036686,-0.377616,-0.925235,-0.012097,0.007133,-0.005948,13.403780,-3.059033,-31.010406,,,,,,,
1504196734.566363,-0.040531,0.387136,-2.827451,0.000923,-0.076080,-0.020007,-0.037521,-0.377538,-0.925234,-0.013489,0.000661,-0.006377,13.403780,-3.059033,-31.010406,,,,,,,
1504196734.576373,-0.041502,0.387247,-2.827516,0.010484,-0.077235,-0.013583,-0.038418,-0.377640,-0.925155,-0.014255,-0.001617,-0.002015,13.328600,-2.984357,-31.011169,,,,,,,
1504196734.586383,-0.042496,0.387430,-2.827549,0.009321,-0.086823,-0.009297,-0.039334,-0.377810,-0.925047,-0.010257,-0.004499,0.001707,13.328600,-2.984357,-31.011169,,,,,,,
1504196734.596375,-0.043491,0.387590,-2.827593,0.000740,-0.092083,-0.008235,-0.040252,-0.377958,-0.924947,-0.006379,-0.005449,0.005727,12.653597,-2.987393,-31.012817,,,,,,,
1504196734.606385,-0.044492,0.387642,-2.827666,-0.008844,-0.092002,-0.011453,-0.041177,-0.378006,-0.924887,-0.005377,-0.004653,0.008215,12.653597,-2.987393,-31.012817,,,,,,,
1504196734.616395,-0.045396,0.387510,-2.827758,-0.033258,-0.077948,-0.013655,-0.042016,-0.377884,-0.924899,-0.006492,-0.004776,0.010867,12.879091,-3.136533,-30.936157,,,,,,,
1504196734.626405,-0.046102,0.387239,-2.827889,-0.044774,-0.053342,-0.017987,-0.042673,-0.377633,-0.924971,-0.008642,-0.003119,0.013594,12.879091,-3.136533,-30.936157,,,,,,,
1504196734.636414,-0.046503,0.386852,-2.828070,-0.059455,-0.024448,-0.022332,-0.043051,-0.377275,-0.925100,-0.009241,-0.004455,0.017279,12.804308,-3.137174,-30.786316,,,,,,,
1504196734.646424,-0.046644,0.386428,-2.828302,-0.067797,-0.002002,-0.024520,-0.043189,-0.376882,-0.925254,-0.008370,-0.005778,0.021735,12.804308,-3.137174,-30.786316,,,,,,,
1504196734.656434,-0.046709,0.386025,-2.828527,-0.067808,-0.002008,-0.021318,-0.043256,-0.376509,-0.925403,-0.006945,-0.007494,0.024661,12.653215,-2.837399,-31.013947,,,,,,,
1504196734.666444,-0.046850,0.385754,-2.828671,-0.049786,-0.011757,-0.012730,-0.043391,-0.376257,-0.925499,-0.005330,-0.008249,0.024513,12.653215,-2.837399,-31.013947,,,,,,,
1504196734.676453,-0.047165,0.385738,-2.828754,-0.020048,-0.027991,-0.010515,-0.043683,-0.376243,-0.925491,-0.005648,-0.004113,0.029632,12.803255,-2.762021,-30.864136,,,,,,,
1504196734.686463,-0.047683,0.386015,-2.828894,0.007457,-0.061246,-0.015746,-0.044158,-0.376500,-0.925364,-0.001405,-0.001384,0.035547,12.803255,-2.762021,-30.864136,,,,,,,
1504196734.696473,-0.048418,0.386534,-2.829185,0.029699,-0.092316,-0.031665,-0.044829,-0.376980,-0.925136,0.002226,-0.002704,0.033824,12.577852,-2.687741,-31.015259,,,,,,,
1504196734.706483,-0.049267,0.387260,-2.829659,0.049869,-0.114843,-0.046535,-0.045600,-0.377652,-0.924824,0.006370,-0.000461,0.035191,12.577852,-2.687741,-31.015259,,,,,,,
1504196734.716493,-0.050228,0.388149,-2.830238,0.056230,-0.126606,-0.056111,-0.046472,-0.378476,-0.924444,0.006784,-0.002307,0.038305,12.353685,-3.063596,-31.088013,,,,,,,
1504196734.726502,-0.051095,0.389113,-2.830941,0.047756,-0.124396,-0.063604,-0.047255,-0.379368,-0.924039,0.010862,-0.010418,0.036938,12.353685,-3.063596,-31.088013,,,,,,,
1504196734.736512,-0.051696,0.389975,-2.831682,0.031907,-0.104019,-0.060468,-0.047793,-0.380165,-0.923683,0.015704,-0.013161,0.037025,12.202929,-2.764264,-31.090637,,,,,,,
1504196734.746522,-0.052053,0.390677,-2.832407,0.003345,-0.073946,-0.059506,-0.048109,-0.380814,-0.923399,0.013853,-0.017074,0.040220,12.202929,-2.764264,-31.090637,,,,,,,
1504196734.756532,-0.052045,0.391064,-2.833179,-0.033776,-0.048061,-0.060686,-0.048094,-0.381172,-0.923252,0.017149,-0.020531,0.038151,12.278261,-2.764386,-30.865448,,,,,,,
1504196734.766541,-0.051823,0.391038,-2.834000,-0.071007,-0.036028,-0.061843,-0.047890,-0.381148,-0.923273,0.019554,-0.022599,0.034936,12.278261,-2.764386,-30.865448,,,,,,,
1504196734.776551,-0.051491,0.390798,-2.834946,-0.107243,-0.037847,-0.070446,-0.047587,-0.380926,-0.923380,0.023402,-0.026499,0.035441,12.202654,-2.614423,-31.016754,,,,,,,
1504196734.786561,-0.051059,0.390152,-2.836112,-0.140301,-0.048214,-0.087566,-0.047202,-0.380329,-0.923646,0.029334,-0.028088,0.031755,12.202654,-2.614423,-31.016754,,,,,,,
1504196734.796571,-0.050665,0.389290,-2.837454,-0.152071,-0.060886,-0.099311,-0.046854,-0.379531,-0.923992,0.031046,-0.024430,0.026821,11.978045,-2.765424,-31.016174,,,,,,,
1504196734.806580,-0.050318,0.388395,-2.838851,-0.148865,-0.064098,-0.103574,-0.046551,-0.378703,-0.924347,0.030133,-0.022710,0.028824,11.978045,-2.765424,-31.016174,,,,,,,
1504196734.816590,-0.050065,0.387533,-2.840178,-0.131775,-0.059976,-0.099286,-0.046333,-0.377905,-0.924684,0.025215,-0.019022,0.023103,12.052477,-2.540097,-31.017670,,,,,,,
1504196734.826600,-0.049694,0.386875,-2.841443,-0.100687,-0.041048,-0.097134,-0.046002,-0.377296,-0.924949,0.023282,-0.017296,0.016960,12.052477,-2.540097,-31.017670,,,,,,,
1504196734.836610,-0.049053,0.386690,-2.842699,-0.061062,-0.022190,-0.094969,-0.045413,-0.377125,-0.925048,0.029269,-0.021267,0.020050,11.976229,-2.090283,-31.096252,,,,,,,
1504196734.846620,-0.048258,0.386926,-2.843958,-0.031182,-0.021365,-0.092789,-0.044673,-0.377343,-0.924995,0.034740,-0.026282,0.021919,11.976229,-2.090283,-31.096252,,,,,,,
1504196734.856629,-0.047352,0.387325,-2.845241,-0.033380,-0.028800,-0.089585,-0.043828,-0.377713,-0.924885,0.042897,-0.034168,0.020008,11.752810,-2.541883,-30.793427,,,,,,,
1504196734.866609,-0.046473,0.387724,-2.846584,-0.051668,-0.049949,-0.090655,-0.043008,-0.378082,-0.924772,0.052377,-0.042953,0.018995,11.752810,-2.541883,-30.793427,,,,,,,
1504196734.876618,-0.045710,0.387947,-2.848046,-0.081745,-0.080584,-0.095999,-0.042299,-0.378289,-0.924721,0.060213,-0.050269,0.016914,11.976534,-2.165433,-31.020691,,,,,,,
1504196734.886628,-0.046259,0.386893,-2.849201,-0.118163,-0.103719,-0.104561,-0.042825,-0.377313,-0.925095,0.062905,-0.056128,0.012131,11.976534,-2.165433,-31.020691,,,,,,,
1504196734.896638,-0.046881,0.385626,-2.850488,-0.135248,-0.112092,-0.115250,-0.043422,-0.376139,-0.925545,0.063716,-0.059789,0.007714,11.976534,-2.165433,-31.020691,,,,,,,
1504196734.906648,-0.047395,0.384283,-2.851848,-0.140441,-0.097126,-0.119555,-0.043922,-0.374895,-0.926026,0.062446,-0.063155,0.007020,11.976534,-2.165433,-31.020691,,,,,,,
1504196734.916657,-0.046696,0.383901,-2.853568,-0.144529,-0.074706,-0.116408,-0.043281,-0.374541,-0.926200,0.054100,-0.059709,0.003791,11.825960,-1.941098,-31.022736,,,,,,,
1504196734.926667,-0.046655,0.382519,-2.854907,-0.144200,-0.034214,-0.117546,-0.043268,-0.373259,-0.926718,0.046625,-0.057421,-0.005320,11.825960,-1.941098,-31.022736,,,,,,,
1504196734.936677,-0.046130,0.381219,-2.856207,-0.132065,0.018960,-0.112282,-0.042803,-0.372052,-0.927224,0.042803,-0.057605,-0.013434,11.975481,-1.790280,-31.098511,,,,,,,
1504196734.946687,-0.045105,0.380068,-2.857424,-0.114618,0.069959,-0.105937,-0.041872,-0.370983,-0.927695,0.041064,-0.057743,-0.013421,11.975481,-1.790280,-31.098511,,,,,,,
1504196734.956696,-0.042927,0.380113,-2.858786,-0.083456,0.104861,-0.091008,-0.039850,-0.371026,-0.927767,0.040201,-0.059928,-0.013258,11.675814,-1.792081,-30.874237,,,,,,,
1504196734.966706,-0.041444,0.379552,-2.859787,-0.052492,0.107803,-0.090959,-0.038483,-0.370504,-0.928033,0.040482,-0.063822,-0.003638,11.675814,-1.792081,-30.874237,,,,,,,
1504196734.976716,-0.040246,0.379289,-2.860847,-0.022884,0.069206,-0.099379,-0.037376,-0.370260,-0.928176,0.052314,-0.062922,0.000731,11.676012,-1.867078,-30.873688,,,,,,,
1504196734.986726,-0.039559,0.379318,-2.861974,0.006586,0.014625,-0.105636,-0.036738,-0.370287,-0.928191,0.059244,-0.063261,0.001631,11.676012,-1.867078,-30.873688,,,,,,,
1504196734.996735,-0.038021,0.380822,-2.863648,0.026663,-0.019613,-0.117292,-0.035289,-0.371684,-0.927688,0.058757,-0.063695,0.010315,11.825396,-1.716107,-31.024414,,,,,,,
1504196735.006745,-0.037832,0.381300,-2.864945,0.052218,-0.029408,-0.122568,-0.035107,-0.372127,-0.927518,0.059491,-0.066410,0.017285,11.825396,-1.716107,-31.024414,,,,,,,
1504196735.016755,-0.036355,0.383362,-2.866675,0.061911,-0.017757,-0.117244,-0.033709,-0.374041,-0.926799,0.058535,-0.066770,0.022731,11.749498,-1.490994,-31.251312,,,,,,,
1504196735.026765,-0.034770,0.385564,-2.868209,0.071644,0.006667,-0.099134,-0.032211,-0.376082,-0.926027,0.056182,-0.068117,0.028947,11.749498,-1.490994,-31.251312,,,,,,,
1504196735.036775,-0.033041,0.387852,-2.869477,0.078086,0.025781,-0.071413,-0.030581,-0.378201,-0.925218,0.057223,-0.066318,0.035387,11.600298,-1.716962,-31.100006,,,,,,,
1504196735.046784,-0.031215,0.390075,-2.870531,0.069610,0.041830,-0.052252,-0.028865,-0.380258,-0.924430,0.059093,-0.064795,0.038886,11.600298,-1.716962,-31.100006,,,,,,,
1504196735.056794,-0.029110,0.392184,-2.871468,0.052587,0.055822,-0.034172,-0.026896,-0.382207,-0.923685,0.069133,-0.064662,0.044184,11.525637,-1.717755,-30.875183,,,,,,,
1504196735.066804,-0.027010,0.394056,-2.872252,0.026015,0.069902,-0.026781,-0.024937,-0.383937,-0.923023,0.062779,-0.062444,0.050495,11.525637,-1.717755,-30.875183,,,,,,,
1504196735.076814,-0.026112,0.394042,-2.872595,-0.011236,0.076610,-0.034329,-0.024109,-0.383924,-0.923050,0.064560,-0.062365,0.051758,11.901232,-2.090619,-31.096436,,,,,,,
1504196735.086823,-0.025259,0.393752,-2.873010,-0.036927,0.064038,-0.037554,-0.023324,-0.383656,-0.923181,0.073586,-0.067897,0.053308,11.901232,-2.090619,-31.096436,,,,,,,
1504196735.096833,-0.024634,0.393295,-2.873441,-0.046728,0.038545,-0.038593,-0.022751,-0.383234,-0.923371,0.070373,-0.066854,0.057374,11.750063,-1.715985,-31.249634,,,,,,,
1504196735.106843,-0.022626,0.394689,-2.874436,-0.030989,0.009652,-0.025720,-0.020884,-0.384521,-0.922880,0.077678,-0.065186,0.061064,11.750063,-1.715985,-31.249634,,,,,,,
1504196735.116853,-0.022624,0.394518,-2.874568,-0.012033,-0.010768,-0.008572,-0.020884,-0.384364,-0.922945,0.072199,-0.067098,0.067538,11.674807,-1.566480,-31.175903,,,,,,,
1504196735.126862,-0.022899,0.394417,-2.874536,-0.011182,-0.027841,0.007470,-0.021139,-0.384270,-0.922979,0.078954,-0.064598,0.062597,11.674807,-1.566480,-31.175903,,,,,,,
1504196735.136872,-0.023191,0.394225,-2.874292,-0.022908,-0.013913,0.027706,-0.021410,-0.384093,-0.923046,0.077730,-0.065645,0.053524,11.600100,-1.641965,-31.100555,,,,,,,
1504196735.146882,-0.021644,0.395590,-2.874465,-0.039723,0.025653,0.045741,-0.019971,-0.385353,-0.922553,0.069241,-0.065621,0.052787,11.600100,-1.641965,-31.100555,,,,,,,
1504196735.156892,-0.021272,0.395026,-2.873792,-0.059710,0.075877,0.069101,-0.019632,-0.384833,-0.922778,0.069696,-0.069437,0.052370,11.899462,-1.340756,-31.027069,,,,,,,
1504196735.166901,-0.020538,0.394237,-2.872906,-0.081872,0.117599,0.087135,-0.018961,-0.384104,-0.923095,0.064432,-0.074255,0.055007,11.899462,-1.340756,-31.027069,,,,,,,
1504196735.176911,-0.019588,0.393320,-2.871895,-0.096703,0.136892,0.096682,-0.018091,-0.383257,-0.923465,0.062571,-0.077406,0.055026,11.674242,-1.341474,-31.177612,,,,,,,
1504196735.186921,-0.017134,0.394308,-2.871456,-0.102034,0.131630,0.094536,-0.015818,-0.384169,-0.923127,0.064936,-0.078920,0.052781,11.674242,-1.341474,-31.177612,,,,,,,
1504196735.196931,-0.014736,0.395270,-2.871095,-0.097819,0.116703,0.088154,-0.013599,-0.385057,-0.922792,0.067249,-0.077925,0.050692,11.974169,-1.265271,-31.102448,,,,,,,
1504196735.206941,-0.012543,0.396314,-2.870786,-0.081881,0.099549,0.080730,-0.011570,-0.386021,-0.922417,0.064839,-0.078350,0.047921,11.974169,-1.265271,-31.102448,,,,,,,
1504196735.216950,-0.010593,0.397601,-2.870559,-0.064897,0.077062,0.069048,-0.009767,-0.387207,-0.921941,0.062058,-0.080795,0.047673,11.823748,-1.190656,-31.253387,,,,,,,
1504196735.226960,-0.008863,0.399055,-2.870425,-0.047974,0.050308,0.062710,-0.008167,-0.388548,-0.921393,0.062854,-0.083529,0.044439,11.823748,-1.190656,-31.253387,,,,,,,
1504196735.236939,-0.007492,0.400666,-2.870262,-0.035381,0.020384,0.063844,-0.006899,-0.390032,-0.920775,0.060594,-0.086561,0.041518,12.048632,-1.189496,-31.327820,,,,,,,
1504196735.246949,-0.006418,0.402641,-2.870033,-0.001376,0.002000,0.069264,-0.005905,-0.391849,-0.920010,0.058548,-0.093228,0.039639,12.048632,-1.189496,-31.327820,,,,,,,
1504196735.256959,-0.005649,0.404855,-2.869656,0.003797,-0.015089,0.082106,-0.005193,-0.393886,-0.919145,0.056035,-0.104344,0.034181,12.048632,-1.189496,-31.327820,,,,,,,
1504196735.266969,-0.005158,0.407174,-2.869138,0.013365,-0.021550,0.086399,-0.004737,-0.396016,-0.918231,0.050818,-0.112407,0.021808,12.048632,-1.189496,-31.327820,,,,,,,
1504196735.276978,-0.004841,0.409468,-2.868565,0.025201,-0.016302,0.082138,-0.004441,-0.398122,-0.917322,0.041383,-0.110011,0.012354,11.598375,-1.041669,-31.255066,,,,,,,
1504196735.286988,-0.005292,0.409744,-2.867737,0.028490,-0.009928,0.074661,-0.004854,-0.398375,-0.917210,0.039262,-0.111132,0.000477,11.598375,-1.041669,-31.255066,,,,,,,
1504196735.296998,-0.005557,0.409984,-2.866945,0.022253,0.009307,0.072481,-0.005097,-0.398594,-0.917113,0.034317,-0.114971,-0.012498,11.822985,-1.114896,-31.628937,,,,,,,
1504196735.307008,-0.005716,0.410144,-2.866072,0.014834,0.022144,0.083120,-0.005242,-0.398741,-0.917049,0.025750,-0.109560,-0.021520,11.822985,-1.114896,-31.628937,,,,,,,
1504196735.317017,-0.005475,0.411961,-2.865160,0.019106,0.031686,0.103393,-0.005017,-0.400407,-0.916324,0.018918,-0.106398,-0.032819,11.747087,-0.889798,-31.855804,,,,,,,
1504196735.327027,-0.005524,0.412301,-2.863930,0.038384,0.047500,0.114072,-0.005061,-0.400719,-0.916187,0.009196,-0.103935,-0.037274,11.747087,-0.889798,-31.855804,,,,,,,
1504196735.337037,-0.005513,0.413016,-2.862673,0.085377,0.053506,0.114143,-0.005049,-0.401373,-0.915901,0.006148,-0.089838,-0.039193,11.972353,-1.038632,-31.929108,,,,,,,
1504196735.347047,-0.005432,0.414318,-2.861393,0.145179,0.061536,0.116367,-0.004972,-0.402566,-0.915378,0.004514,-0.080527,-0.036649,11.972353,-1.038632,-31.929108,,,,,,,
1504196735.357057,-0.005352,0.417388,-2.860124,0.215685,0.066292,0.110081,-0.004892,-0.405374,-0.914138,-0.002218,-0.074576,-0.037583,11.972612,-0.964231,-31.629700,,,,,,,
1504196735.367066,-0.005031,0.420044,-2.858990,0.283087,0.082797,0.099495,-0.004593,-0.407801,-0.913059,-0.003631,-0.070822,-0.034527,11.972612,-0.964231,-31.629700,,,,,,,
1504196735.377076,-0.004457,0.423382,-2.857986,0.348409,0.104650,0.086761,-0.004063,-0.410846,-0.911696,-0.003444,-0.066266,-0.027574,12.123476,-1.263700,-31.552063,,,,,,,
1504196735.387086,-0.003545,0.427156,-2.857186,0.386082,0.132069,0.064362,-0.003226,-0.414284,-0.910142,-0.004007,-0.062522,-0.020782,12.123476,-1.263700,-31.552063,,,,,,,
1504196735.397096,-0.002225,0.432079,-2.856683,0.399189,0.153300,0.040867,-0.002021,-0.418760,-0.908095,0.002830,-0.062426,-0.019090,12.348360,-1.262540,-31.626526,,,,,,,
1504196735.407105,-0.000775,0.436027,-2.856355,0.391838,0.158704,0.025901,-0.000703,-0.422341,-0.906437,0.010743,-0.064918,-0.015652,12.348360,-1.262540,-31.626526,,,,,,,
1504196735.417115,0.000635,0.439782,-2.856134,0.366171,0.147201,0.019473,0.000575,-0.425743,-0.904844,0.015325,-0.064950,-0.011248,12.573290,-1.410932,-31.924835,,,,,,,
1504196735.427125,0.001880,0.443211,-2.855905,0.335080,0.130404,0.022650,0.001698,-0.428843,-0.903378,0.019832,-0.067388,-0.010380,12.573290,-1.410932,-31.924835,,,,,,,
1504196735.437135,0.003524,0.447564,-2.855759,0.310519,0.133796,0.036476,0.003177,-0.432771,-0.901498,0.020032,-0.066283,-0.011023,12.499041,-1.711270,-31.922760,,,,,,,
1504196735.447144,0.004809,0.450563,-2.855202,0.296759,0.159464,0.055621,0.004329,-0.435472,-0.900192,0.013661,-0.064147,-0.010315,12.499041,-1.711270,-31.922760,,,,,,,
1504196735.457154,0.006344,0.453452,-2.854500,0.286284,0.190441,0.066222,0.005703,-0.438071,-0.898922,0.004429,-0.058389,-0.016773,12.499041,-1.711270,-31.922760,,,,,,,
1504196735.467164,0.007931,0.456290,-2.853785,0.281988,0.186215,0.065154,0.007120,-0.440621,-0.897665,0.000205,-0.052940,-0.029611,12.499041,-1.711270,-31.922760,,,,,,,
1504196735.477174,0.009087,0.459498,-2.853227,0.267960,0.144805,0.032118,0.008145,-0.443498,-0.896238,-0.010220,-0.046660,-0.047014,12.649752,-1.861051,-31.696289,,,,,,,
1504196735.487183,0.009539,0.461945,-2.853364,0.245177,0.045974,-0.051000,0.008539,-0.445690,-0.895147,-0.017953,-0.027805,-0.069743,12.649752,-1.861051,-31.696289,,,,,,,
1504196735.497193,0.009710,0.463999,-2.854761,0.195587,-0.077128,-0.145868,0.008683,-0.447528,-0.894228,-0.016999,-0.008100,-0.099653,12.648363,-1.485456,-31.999084,,,,,,,
1504196735.507203,0.009045,0.465516,-2.857109,0.137398,-0.200173,-0.227941,0.008083,-0.448884,-0.893554,-0.028560,0.015244,-0.123399,12.648363,-1.485456,-31.999084,,,,,,,
1504196735.517213,0.007812,0.466379,-2.860131,0.073045,-0.274182,-0.279158,0.006978,-0.449655,-0.893175,-0.045781,0.041055,-0.137907,12.948854,-1.634244,-31.922211,,,,,,,
1504196735.527223,0.005317,0.464670,-2.862864,0.012205,-0.279013,-0.288854,0.004754,-0.448128,-0.893957,-0.059044,0.060830,-0.141154,12.948854,-1.634244,-31.922211,,,,,,,
1504196735.537232,0.004376,0.464494,-2.865966,-0.023625,-0.212668,-0.271955,0.003912,-0.447971,-0.894040,-0.078696,0.083697,-0.126132,12.798433,-1.559628,-32.073181,,,,,,,
1504196735.547242,0.004267,0.464135,-2.868748,-0.034685,-0.108182,-0.240136,0.003816,-0.447649,-0.894201,-0.092118,0.109789,-0.108622,12.798433,-1.559628,-32.073181,,,,,,,
1504196735.557252,0.004961,0.463963,-2.871184,-0.007467,-0.022122,-0.211421,0.004437,-0.447496,-0.894275,-0.102123,0.133211,-0.093091,12.648134,-1.485150,-32.149078,,,,,,,
1504196735.567262,0.003322,0.460237,-2.872221,0.028784,-0.003294,-0.190026,0.002976,-0.444160,-0.895942,-0.095475,0.142174,-0.079064,12.648134,-1.485150,-32.149078,,,,,,,
1504196735.577271,0.003896,0.460916,-2.874280,0.081734,-0.049557,-0.184516,0.003490,-0.444769,-0.895639,-0.085323,0.148885,-0.078665,12.797457,-1.483579,-32.598755,,,,,,,
1504196735.587281,0.003734,0.462021,-2.876435,0.120568,-0.137244,-0.196035,0.003342,-0.445758,-0.895147,-0.077790,0.153049,-0.074793,12.797457,-1.483579,-32.598755,,,,,,,
1504196735.597281,0.002667,0.463429,-2.878798,0.146539,-0.237603,-0.216094,0.002385,-0.447018,-0.894522,-0.073354,0.156994,-0.067560,12.947237,-1.258359,-32.375061,,,,,,,
1504196735.607291,-0.001257,0.460713,-2.880395,0.164115,-0.307025,-0.229806,-0.001126,-0.444587,-0.895735,-0.074908,0.159659,-0.062654,12.947237,-1.258359,-32.375061,,,,,,,
1504196735.617270,-0.003349,0.462498,-2.882958,0.182119,-0.323159,-0.228679,-0.002997,-0.446185,-0.894936,-0.086724,0.164310,-0.047020,12.796328,-1.033582,-32.602142,,,,,,,
1504196735.627280,-0.005293,0.464476,-2.885418,0.201494,-0.294559,-0.216955,-0.004733,-0.447954,-0.894044,-0.096357,0.164904,-0.025084,12.796328,-1.033582,-32.602142,,,,,,,
1504196735.637289,-0.006849,0.466593,-2.887702,0.213558,-0.243526,-0.201013,-0.006117,-0.449846,-0.893085,-0.101549,0.165147,-0.006024,12.871737,-1.108533,-32.451385,,,,,,,
1504196735.647299,-0.010425,0.465482,-2.888660,0.211786,-0.181753,-0.186164,-0.009316,-0.448853,-0.893557,-0.093467,0.156739,0.010241,12.871737,-1.108533,-32.451385,,,,,,,
1504196735.657309,-0.010840,0.467272,-2.890721,0.162155,-0.117408,-0.186364,-0.009678,-0.450453,-0.892748,-0.085277,0.145979,0.017443,12.571489,-0.960034,-32.378235,,,,,,,
1504196735.667319,-0.010678,0.468343,-2.892895,0.084696,-0.072002,-0.199387,-0.009528,-0.451408,-0.892267,-0.073861,0.136238,0.016336,12.571489,-0.960034,-32.378235,,,,,,,
1504196735.677329,-0.010095,0.468591,-2.895346,0.002880,-0.045727,-0.225192,-0.009006,-0.451630,-0.892160,-0.068249,0.128906,0.014429,12.496630,-1.334332,-32.900604,,,,,,,
1504196735.687338,-0.011064,0.465517,-2.897331,-0.060030,-0.051595,-0.251966,-0.009887,-0.448885,-0.893535,-0.055299,0.119616,0.027141,12.496630,-1.334332,-32.900604,,,,,,,
1504196735.697348,-0.010541,0.464543,-2.900296,-0.112564,-0.092706,-0.266928,-0.009424,-0.448014,-0.893977,-0.045722,0.113480,0.044474,12.570925,-0.959287,-32.753235,,,,,,,
1504196735.707358,-0.010581,0.463137,-2.903335,-0.151458,-0.155252,-0.270087,-0.009466,-0.446757,-0.894605,-0.036768,0.107050,0.044950,12.570925,-0.959287,-32.753235,,,,,,,
1504196735.717368,-0.011289,0.461491,-2.906292,-0.171200,-0.215840,-0.259341,-0.010108,-0.445284,-0.895333,-0.033761,0.101274,0.044762,12.194368,-0.435666,-32.908112,,,,,,,
1504196735.727377,-0.013426,0.458264,-2.908619,-0.179093,-0.250975,-0.235804,-0.012041,-0.442392,-0.896741,-0.032729,0.093409,0.051541,12.194368,-0.435666,-32.908112,,,,,,,
1504196735.737387,-0.014892,0.456389,-2.911035,-0.195240,-0.250872,-0.207013,-0.013367,-0.440710,-0.897550,-0.038101,0.083669,0.051862,12.419374,-0.434659,-32.907562,,,,,,,
1504196735.747397,-0.016217,0.454327,-2.913147,-0.212159,-0.214531,-0.179353,-0.014571,-0.438857,-0.898439,-0.046845,0.072769,0.044816,12.419374,-0.434659,-32.907562,,,,,,,
1504196735.757407,-0.017058,0.452287,-2.914963,-0.199999,-0.144330,-0.151704,-0.015342,-0.437024,-0.899319,-0.052850,0.063839,0.041226,12.492800,0.016269,-33.210754,,,,,,,
1504196735.767416,-0.019053,0.449741,-2.915626,-0.163211,-0.058375,-0.119756,-0.017157,-0.434732,-0.900396,-0.057138,0.055475,0.050543,12.492800,0.016269,-33.210754,,,,,,,
1504196735.777426,-0.018698,0.448747,-2.916645,-0.079704,0.002700,-0.079158,-0.016846,-0.433837,-0.900834,-0.059677,0.050917,0.064958,12.043505,-0.136197,-32.985748,,,,,,,
1504196735.787436,-0.018329,0.448561,-2.917213,0.000178,0.009451,-0.040600,-0.016515,-0.433669,-0.900921,-0.055247,0.043319,0.080807,12.043505,-0.136197,-32.985748,,,,,,,
1504196735.797446,-0.018481,0.448969,-2.917465,0.050872,-0.042137,-0.019074,-0.016648,-0.434037,-0.900741,-0.043990,0.035951,0.085495,12.342485,0.090747,-33.286682,,,,,,,
1504196735.807455,-0.020725,0.450035,-2.917050,0.070445,-0.127566,-0.014609,-0.018660,-0.434997,-0.900238,-0.034624,0.027237,0.084946,12.342485,0.090747,-33.286682,,,,,,,
1504196735.817465,-0.022530,0.450665,-2.917268,0.059168,-0.209514,-0.024091,-0.020279,-0.435565,-0.899929,-0.029984,0.015902,0.083950,11.817904,0.013095,-33.137421,,,,,,,
1504196735.827475,-0.024863,0.451173,-2.917653,0.048188,-0.258425,-0.040035,-0.022373,-0.436021,-0.899658,-0.030880,0.003495,0.079437,11.817904,0.013095,-33.137421,,,,,,,
1504196735.837485,-0.027189,0.451567,-2.918212,0.032313,-0.250820,-0.053952,-0.024461,-0.436376,-0.899432,-0.039626,-0.000834,0.089572,11.966890,0.239367,-33.438721,,,,,,,
1504196735.847495,-0.030738,0.453090,-2.918159,0.027378,-0.208168,-0.061494,-0.027633,-0.437746,-0.898674,-0.046052,-0.002028,0.092522,11.966890,0.239367,-33.438721,,,,,,,
1504196735.857504,-0.032100,0.453409,-2.918857,0.029988,-0.150644,-0.064793,-0.028852,-0.438032,-0.898496,-0.052401,0.000242,0.085203,11.666063,0.388614,-33.740601,,,,,,,
1504196735.867514,-0.032812,0.453894,-2.919556,0.053982,-0.084775,-0.063800,-0.029485,-0.438468,-0.898263,-0.051066,0.002494,0.087487,11.666063,0.388614,-33.740601,,,,,,,
1504196735.877524,-0.032935,0.454621,-2.920170,0.074701,-0.024214,-0.056400,-0.029584,-0.439122,-0.897940,-0.051211,-0.001338,0.098441,11.741182,0.388797,-33.665405,,,,,,,
1504196735.887534,-0.034413,0.456842,-2.920009,0.061163,0.012109,-0.059675,-0.030878,-0.441116,-0.896919,-0.047903,-0.005112,0.101280,11.741182,0.388797,-33.665405,,,,,,,
1504196735.897543,-0.033823,0.457085,-2.920798,0.004818,0.027508,-0.075810,-0.030345,-0.441334,-0.896830,-0.038136,-0.019939,0.094431,11.441179,0.387454,-33.666138,,,,,,,
1504196735.907553,-0.033078,0.456621,-2.921853,-0.069762,0.026016,-0.099420,-0.029683,-0.440918,-0.897057,-0.030696,-0.036087,0.085335,11.441179,0.387454,-33.666138,,,,,,,
1504196735.917563,-0.032338,0.455307,-2.923266,-0.158341,0.004399,-0.129423,-0.029039,-0.439738,-0.897657,-0.022826,-0.048833,0.080198,11.366030,0.536822,-33.517456,,,,,,,
1504196735.927573,-0.032422,0.455440,-2.924662,-0.225779,-0.036597,-0.143338,-0.029112,-0.439858,-0.897596,-0.014436,-0.050758,0.065778,11.366030,0.536822,-33.517456,,,,,,,
1504196735.937582,-0.032315,0.453074,-2.926249,-0.239925,-0.063134,-0.130507,-0.029050,-0.437731,-0.898636,-0.020358,-0.050687,0.052476,11.439531,0.912906,-33.895111,,,,,,,
1504196735.947592,-0.032437,0.451042,-2.927644,-0.193157,-0.075257,-0.114394,-0.029188,-0.435903,-0.899520,-0.028903,-0.042383,0.055755,11.439531,0.912906,-33.895111,,,,,,,
1504196735.957603,-0.032687,0.449752,-2.928712,-0.108978,-0.069589,-0.083303,-0.029431,-0.434743,-0.900074,-0.026599,-0.035762,0.054477,11.514452,0.988086,-33.820465,,,,,,,
1504196735.967613,-0.034247,0.450994,-2.928723,-0.002266,-0.043889,-0.040457,-0.030817,-0.435860,-0.899487,-0.036917,-0.032173,0.049404,11.514452,0.988086,-33.820465,,,,,,,
1504196735.977621,-0.034440,0.451670,-2.928861,0.087386,-0.020152,-0.008321,-0.030980,-0.436469,-0.899186,-0.046565,-0.034662,0.047654,11.738512,1.364093,-33.822723,,,,,,,
1504196735.987631,-0.034653,0.452910,-2.928757,0.134260,-0.018425,0.008835,-0.031153,-0.437584,-0.898638,-0.044225,-0.041450,0.036073,11.738512,1.364093,-33.822723,,,,,,,
1504196735.997610,-0.035002,0.454361,-2.928578,0.146949,-0.031319,0.011015,-0.031445,-0.438888,-0.897991,-0.035602,-0.054078,0.018841,11.438463,1.288043,-33.972961,,,,,,,
1504196736.007620,-0.036378,0.457556,-2.928088,0.131827,-0.061037,0.006778,-0.032629,-0.441757,-0.896541,-0.023905,-0.066498,0.007000,11.438463,1.288043,-33.972961,,,,,,,
1504196736.017630,-0.037341,0.458737,-2.927999,0.106978,-0.102386,0.002538,-0.033473,-0.442816,-0.895987,-0.010732,-0.078454,0.001517,11.288012,1.512210,-33.899994,,,,,,,
1504196736.027640,-0.038756,0.459521,-2.927943,0.068198,-0.150016,0.000420,-0.034727,-0.443519,-0.895592,-0.003069,-0.086389,-0.006004,11.288012,1.512210,-33.899994,,,,,,,
1504196736.037650,-0.040399,0.460027,-2.927946,0.045683,-0.165812,-0.002793,-0.036189,-0.443972,-0.895310,-0.002995,-0.085569,-0.021561,11.287874,1.437671,-34.124451,,,,,,,
1504196736.047659,-0.042095,0.461981,-2.927835,0.044895,-0.132778,-0.000716,-0.037671,-0.445722,-0.894378,-0.009601,-0.077074,-0.033570,11.287874,1.437671,-34.124451,,,,,,,
1504196736.057669,-0.043205,0.462588,-2.927563,0.066473,-0.082906,0.031256,-0.038652,-0.446265,-0.894066,-0.015516,-0.069421,-0.042748,10.987383,1.586459,-34.201294,,,,,,,
1504196736.067679,-0.043888,0.463391,-2.926787,0.088118,-0.015999,0.077074,-0.039247,-0.446984,-0.893680,-0.023055,-0.077857,-0.062374,10.987383,1.586459,-34.201294,,,,,,,
1504196736.077689,-0.044100,0.464267,-2.925457,0.091640,0.055315,0.127122,-0.039419,-0.447767,-0.893281,-0.015207,-0.079546,-0.075545,10.912188,1.661136,-34.202026,,,,,,,
1504196736.087698,-0.044282,0.466017,-2.923453,0.102335,0.091398,0.182583,-0.039547,-0.449331,-0.892489,-0.008594,-0.075693,-0.083157,10.912188,1.661136,-34.202026,,,,,,,
1504196736.097708,-0.044487,0.466839,-2.920952,0.089268,0.088259,0.230599,-0.039713,-0.450066,-0.892112,-0.005575,-0.084617,-0.092034,10.761965,1.660754,-34.352417,,,,,,,
1504196736.107718,-0.045091,0.467583,-2.918063,0.086772,0.061608,0.260529,-0.040237,-0.450730,-0.891753,-0.008469,-0.081710,-0.104249,10.761965,1.660754,-34.352417,,,,,,,
1504196736.117728,-0.046118,0.468497,-2.915013,0.112053,0.026226,0.269174,-0.041135,-0.451546,-0.891299,-0.017749,-0.075600,-0.112210,10.987154,1.586764,-34.351318,,,,,,,
1504196736.127737,-0.047397,0.469935,-2.911967,0.171681,0.006562,0.261840,-0.042243,-0.452828,-0.890596,-0.025842,-0.071509,-0.110807,10.987154,1.586764,-34.351318,,,,,,,
1504196736.137747,-0.048574,0.472058,-2.908991,0.243345,0.023032,0.252329,-0.043244,-0.454720,-0.889584,-0.034469,-0.068870,-0.100864,10.762041,1.585910,-34.426849,,,,,,,
1504196736.147757,-0.049428,0.474753,-2.906116,0.292740,0.054606,0.239550,-0.043943,-0.457119,-0.888319,-0.043612,-0.071324,-0.093614,10.762041,1.585910,-34.426849,,,,,,,
1504196736.157767,-0.049883,0.477717,-2.903376,0.309076,0.087520,0.225644,-0.044280,-0.459753,-0.886942,-0.046586,-0.077661,-0.093634,11.062761,1.436801,-34.199982,,,,,,,
1504196736.167777,-0.049931,0.480536,-2.900778,0.282750,0.122915,0.212727,-0.044258,-0.462255,-0.885642,-0.045144,-0.078868,-0.101037,11.062761,1.436801,-34.199982,,,,,,,
1504196736.177786,-0.049600,0.482973,-2.898279,0.243575,0.157342,0.207262,-0.043909,-0.464414,-0.884529,-0.035712,-0.075564,-0.109367,11.211138,1.813373,-34.652435,,,,,,,
1504196736.187796,-0.048821,0.484962,-2.895842,0.197010,0.203549,0.204965,-0.043174,-0.466175,-0.883638,-0.023918,-0.063213,-0.113676,11.211138,1.813373,-34.652435,,,,,,,
1504196736.197806,-0.047585,0.486475,-2.893354,0.150390,0.250808,0.215475,-0.042049,-0.467512,-0.882986,-0.003361,-0.041734,-0.112879,10.986635,1.662219,-34.576843,,,,,,,
1504196736.207816,-0.046152,0.487492,-2.890567,0.102408,0.277805,0.252703,-0.040762,-0.468412,-0.882569,0.019796,-0.011889,-0.113814,10.986635,1.662219,-34.576843,,,,,,,
1504196736.217825,-0.045183,0.488147,-2.887020,0.075124,0.251306,0.332758,-0.039892,-0.468990,-0.882302,0.037130,0.020671,-0.115562,10.987001,1.512210,-34.575714,,,,,,,
1504196736.227835,-0.045391,0.488782,-2.882267,0.087894,0.182887,0.443910,-0.040062,-0.469551,-0.881996,0.036110,0.043678,-0.119759,10.987001,1.512210,-34.575714,,,,,,,
1504196736.237845,-0.046356,0.488279,-2.876610,0.168015,0.120337,0.531684,-0.040925,-0.469106,-0.882193,0.020066,0.056677,-0.120371,11.062380,1.362552,-34.574402,,,,,,,
1504196736.247855,-0.048387,0.490744,-2.870191,0.313845,0.092471,0.555468,-0.042660,-0.471282,-0.880950,0.006130,0.080687,-0.099030,11.062380,1.362552,-34.574402,,,,,,,
1504196736.257864,-0.050410,0.494817,-2.863977,0.466610,0.090192,0.513041,-0.044345,-0.474870,-0.878938,0.001697,0.105562,-0.068099,11.512758,1.214572,-34.572174,,,,,,,
1504196736.267874,-0.052205,0.499947,-2.858489,0.552251,0.076781,0.434225,-0.045795,-0.479379,-0.876412,0.007556,0.123056,-0.048545,11.512758,1.214572,-34.572174,,,,,,,
1504196736.277884,-0.053669,0.502967,-2.853993,0.540391,0.023674,0.365983,-0.047000,-0.482027,-0.874895,0.019046,0.127077,-0.050505,11.436846,1.439685,-34.799072,,,,,,,
1504196736.287894,-0.055782,0.507556,-2.849930,0.452720,-0.027771,0.320024,-0.048725,-0.486043,-0.872576,0.026615,0.127584,-0.065413,11.436846,1.439685,-34.799072,,,,,,,
1504196736.297903,-0.058064,0.510963,-2.846329,0.323530,-0.059706,0.286767,-0.050619,-0.489017,-0.870804,0.026709,0.130802,-0.065979,11.438326,0.765002,-34.944000,,,,,,,
1504196736.307913,-0.060433,0.512937,-2.843107,0.176233,-0.081911,0.263068,-0.052624,-0.490739,-0.869716,0.028805,0.140977,-0.064030,11.438326,0.765002,-34.944000,,,,,,,
1504196736.317923,-0.061419,0.508005,-2.840810,0.047176,-0.076554,0.243617,-0.053629,-0.486435,-0.872069,0.027812,0.144836,-0.065583,10.987642,0.988132,-35.021790,,,,,,,
1504196736.327933,-0.063186,0.507940,-2.838155,-0.002563,-0.035635,0.227448,-0.055172,-0.486378,-0.872005,0.023357,0.156499,-0.055791,10.987642,0.988132,-35.021790,,,,,,,
1504196736.337943,-0.064186,0.507589,-2.835688,-0.023243,0.038076,0.213406,-0.056055,-0.486072,-0.872119,0.021020,0.173969,-0.034375,11.288439,0.764178,-34.869385,,,,,,,
1504196736.347952,-0.064351,0.507279,-2.833380,-0.014043,0.112607,0.199414,-0.056208,-0.485801,-0.872260,0.021357,0.183906,-0.013192,11.288439,0.764178,-34.869385,,,,,,,
1504196736.357962,-0.062649,0.501391,-2.831738,-0.006042,0.182894,0.185425,-0.054902,-0.480646,-0.875195,0.025239,0.178155,0.003323,11.437792,1.064700,-34.796234,,,,,,,
1504196736.367972,-0.061400,0.501238,-2.829886,-0.006634,0.222359,0.153333,-0.053813,-0.480512,-0.875336,0.034358,0.170591,0.015717,11.437792,1.064700,-34.796234,,,,,,,
1504196736.377951,-0.059766,0.501001,-2.828540,-0.019173,0.226773,0.107405,-0.052390,-0.480303,-0.875536,0.049033,0.160464,0.023226,11.512529,1.214877,-34.722198,,,,,,,
1504196736.387961,-0.058119,0.500567,-2.827695,-0.046956,0.196141,0.066849,-0.050960,-0.479923,-0.875830,0.060329,0.147693,0.027960,11.512529,1.214877,-34.722198,,,,,,,
1504196736.397971,-0.054115,0.496112,-2.828497,-0.088984,0.136870,0.042317,-0.047568,-0.476010,-0.878153,0.065115,0.128262,0.030512,11.512789,1.065036,-34.796051,,,,,,,
1504196736.407980,-0.053255,0.494882,-2.828181,-0.131991,0.090347,0.033785,-0.046844,-0.474928,-0.878777,0.065200,0.113050,0.027703,11.512789,1.065036,-34.796051,,,,,,,
1504196736.417990,-0.052598,0.493404,-2.827861,-0.149145,0.081960,0.036972,-0.046303,-0.473627,-0.879508,0.061195,0.101679,0.032324,11.512560,1.065341,-34.946045,,,,,,,
1504196736.428000,-0.051716,0.491903,-2.827451,-0.145685,0.120283,0.046517,-0.045564,-0.472304,-0.880257,0.054841,0.092193,0.045739,11.512560,1.065341,-34.946045,,,,,,,
1504196736.438010,-0.048514,0.488695,-2.827771,-0.127212,0.174485,0.059253,-0.042818,-0.469474,-0.881907,0.046099,0.086494,0.057231,11.586321,1.515811,-35.024261,,,,,,,
1504196736.448020,-0.046716,0.487665,-2.827033,-0.087409,0.225290,0.075243,-0.041255,-0.468564,-0.882466,0.040309,0.085981,0.061985,11.586321,1.515811,-35.024261,,,,,,,
1504196736.458030,-0.044712,0.487134,-2.826014,-0.035031,0.251475,0.097703,-0.039498,-0.468095,-0.882795,0.039071,0.080705,0.073972,11.961473,1.367785,-35.172211,,,,,,,
1504196736.468039,-0.042955,0.487177,-2.824661,0.024413,0.230710,0.125595,-0.037946,-0.468133,-0.882843,0.044599,0.071970,0.087005,11.961473,1.367785,-35.172211,,,,,,,
1504196736.478049,-0.041859,0.487645,-2.823044,0.059026,0.167536,0.143912,-0.036969,-0.468547,-0.882665,0.048215,0.061992,0.093602,11.960192,1.967502,-35.026703,,,,,,,
1504196736.488058,-0.041564,0.488288,-2.821374,0.074381,0.086424,0.144082,-0.036696,-0.469115,-0.882375,0.053633,0.049651,0.093358,11.960192,1.967502,-35.026703,,,,,,,
1504196736.498068,-0.041912,0.488676,-2.819897,0.030201,0.018611,0.122777,-0.036996,-0.469457,-0.882180,0.057259,0.033819,0.090600,12.186174,1.668200,-34.873901,,,,,,,
1504196736.508078,-0.042633,0.488378,-2.818761,-0.046848,-0.028675,0.092840,-0.037638,-0.469194,-0.882292,0.060007,0.017977,0.083342,12.186174,1.668200,-34.873901,,,,,,,
1504196736.518088,-0.043420,0.487212,-2.817990,-0.136473,-0.044959,0.067095,-0.038355,-0.468164,-0.882809,0.060542,0.005197,0.074261,11.961504,1.442492,-35.022766,,,,,,,
1504196736.528098,-0.044056,0.485191,-2.817500,-0.219550,-0.038927,0.047728,-0.038958,-0.466377,-0.883728,0.056170,-0.001854,0.069763,11.961504,1.442492,-35.022766,,,,,,,
1504196736.538107,-0.042674,0.483569,-2.817987,-0.272800,-0.028872,0.047607,-0.037769,-0.464942,-0.884535,0.046924,0.002875,0.062987,11.960527,1.742801,-35.175018,,,,,,,
1504196736.548117,-0.043081,0.480748,-2.817477,-0.278062,-0.011793,0.060376,-0.038186,-0.462442,-0.885827,0.035424,0.008555,0.061043,11.960527,1.742801,-35.175018,,,,,,,
