timestamp(unix),attitude_roll(radians),attitude_pitch(radians),attitude_yaw(radians),rotation_rate_x(radians/s),rotation_rate_y(radians/s),rotation_rate_z(radians/s),gravity_x(G),gravity_y(G),gravity_z(G),user_acc_x(G),user_acc_y(G),user_acc_z(G),magnetic_field_x(microteslas),magnetic_field_y(microteslas),magnetic_field_z(microteslas),latitude(degree),longitude(degree),altitude(meter),speed(m/s),course(degree),timestamp(unix),User Mark
1504197102.948063,0.056215,0.568980,0.284778,0.027115,-0.057677,-0.135041,0.047333,-0.538773,-0.841120,0.008544,0.104767,-0.054769,18.598375,-10.536847,-30.416321,,,,,,,
1504197102.958073,0.056472,0.569022,0.283213,0.007877,-0.058590,-0.129735,0.047548,-0.538808,-0.841085,-0.015718,0.101934,-0.055155,18.522951,-10.237622,-30.193756,,,,,,,
1504197102.968082,0.056361,0.566650,0.281928,-0.003840,-0.048913,-0.124439,0.047527,-0.536809,-0.842364,-0.007152,0.093358,-0.056973,18.522951,-10.237622,-30.193756,,,,,,,
1504197102.978092,0.056887,0.566527,0.280464,-0.002501,-0.014824,-0.124497,0.047973,-0.536705,-0.842405,0.001160,0.095497,-0.049670,18.523790,-10.388227,-29.892639,,,,,,,
1504197102.988102,0.057896,0.566609,0.278960,0.023490,0.031850,-0.126669,0.048821,-0.536774,-0.842312,0.004630,0.098541,-0.039829,18.523790,-10.388227,-29.892639,,,,,,,
1504197102.998112,0.059335,0.566991,0.277447,0.053653,0.069960,-0.123481,0.050021,-0.537096,-0.842036,0.003706,0.097124,-0.028447,18.447420,-9.938260,-30.046204,,,,,,,
1504197103.008121,0.061088,0.565755,0.275950,0.085735,0.089930,-0.111717,0.051538,-0.536054,-0.842609,0.001853,0.090772,-0.021298,18.447420,-9.938260,-30.046204,,,,,,,
1504197103.018131,0.062873,0.566823,0.274595,0.123223,0.111993,-0.105286,0.053005,-0.536955,-0.841944,-0.005444,0.085249,-0.028356,18.448214,-10.387815,-30.267822,,,,,,,
1504197103.028141,0.064972,0.568285,0.273188,0.166148,0.140415,-0.109531,0.054721,-0.538187,-0.841047,-0.008289,0.085734,-0.030703,18.448214,-10.387815,-30.267822,,,,,,,
1504197103.038151,0.067335,0.570196,0.271702,0.210059,0.159237,-0.112691,0.056640,-0.539797,-0.839887,-0.003616,0.086947,-0.022478,18.373034,-10.313153,-30.268585,,,,,,,
1504197103.048130,0.070084,0.570794,0.270088,0.251922,0.173837,-0.106208,0.058925,-0.540301,-0.839406,0.002797,0.086184,-0.012049,18.373034,-10.313153,-30.268585,,,,,,,
1504197103.058140,0.072523,0.573333,0.268764,0.261404,0.169479,-0.089106,0.060873,-0.542435,-0.837890,0.006723,0.086640,-0.008378,18.599581,-10.613187,-29.740784,,,,,,,
1504197103.068149,0.074648,0.575697,0.267644,0.232314,0.144127,-0.073100,0.062558,-0.544420,-0.836477,0.007526,0.082200,-0.015650,18.599581,-10.613187,-29.740784,,,,,,,
1504197103.078159,0.076234,0.577488,0.266684,0.164644,0.091398,-0.066720,0.063810,-0.545921,-0.835403,0.012286,0.075584,-0.036865,18.599459,-10.613034,-29.815765,,,,,,,
1504197103.088169,0.077780,0.576214,0.265346,0.059375,0.002766,-0.072074,0.065156,-0.544853,-0.835997,0.020523,0.072044,-0.058886,18.599459,-10.613034,-29.815765,,,,,,,
1504197103.098179,0.077424,0.575792,0.264382,-0.070610,-0.118690,-0.089163,0.064876,-0.544499,-0.836249,0.029042,0.069844,-0.082483,18.749041,-10.537061,-29.965942,,,,,,,
1504197103.108189,0.075826,0.573933,0.263339,-0.212382,-0.246442,-0.106262,0.063616,-0.542939,-0.837359,0.036329,0.065354,-0.107434,18.749041,-10.537061,-29.965942,,,,,,,
1504197103.118198,0.073256,0.570824,0.262187,-0.329343,-0.340299,-0.123378,0.061586,-0.540326,-0.839199,0.037672,0.065701,-0.129154,18.748888,-10.611615,-30.190399,,,,,,,
1504197103.128208,0.070795,0.564969,0.260600,-0.396925,-0.388745,-0.133008,0.059744,-0.535390,-0.842490,0.034998,0.067616,-0.128244,18.748888,-10.611615,-30.190399,,,,,,,
1504197103.138218,0.067505,0.560841,0.259385,-0.402309,-0.392966,-0.129808,0.057120,-0.531898,-0.844880,0.033365,0.066154,-0.105361,18.672762,-10.161954,-30.193939,,,,,,,
1504197103.148228,0.064231,0.557041,0.258329,-0.359639,-0.380553,-0.108408,0.054483,-0.528677,-0.847073,0.027289,0.063543,-0.066440,18.672762,-10.161954,-30.193939,,,,,,,
1504197103.158237,0.060850,0.553826,0.257671,-0.302158,-0.369351,-0.063497,0.051722,-0.525945,-0.848944,0.022573,0.062780,-0.029581,18.446642,-9.937207,-30.571228,,,,,,,
1504197103.168247,0.057524,0.550003,0.257487,-0.241442,-0.346462,-0.010060,0.049014,-0.522690,-0.851113,0.007367,0.061493,-0.010612,18.446642,-9.937207,-30.571228,,,,,,,
1504197103.178257,0.054304,0.548126,0.257843,-0.170741,-0.286347,0.029450,0.046325,-0.521088,-0.852245,-0.013229,0.063798,-0.012578,18.070955,-9.713742,-30.648865,,,,,,,
1504197103.188267,0.051742,0.547005,0.258396,-0.095473,-0.204930,0.043314,0.044173,-0.520132,-0.852943,-0.020720,0.066869,-0.003044,18.070955,-9.713742,-30.648865,,,,,,,
1504197103.198262,0.050037,0.546563,0.258812,-0.031844,-0.129780,0.027280,0.042729,-0.519754,-0.853247,-0.018697,0.069254,0.012594,17.695284,-9.490277,-30.726440,,,,,,,
1504197103.208272,0.048307,0.545196,0.259283,0.011579,-0.058709,-0.012272,0.041288,-0.518586,-0.854028,-0.021604,0.075074,0.020547,17.695284,-9.490277,-30.726440,,,,,,,
1504197103.218282,0.048598,0.545453,0.258780,0.031617,0.022151,-0.049739,0.041530,-0.518805,-0.853883,-0.027370,0.088217,0.017732,17.995882,-9.863492,-30.947906,,,,,,,
1504197103.228292,0.049823,0.545751,0.257947,0.032336,0.096762,-0.074420,0.042568,-0.519060,-0.853677,-0.033748,0.093111,0.013238,17.995882,-9.863492,-30.947906,,,,,,,
1504197103.238302,0.051771,0.545977,0.256954,0.025441,0.161832,-0.085220,0.044225,-0.519253,-0.853475,-0.037267,0.085415,0.001135,17.545519,-9.715512,-30.950134,,,,,,,
1504197103.248311,0.052416,0.544292,0.256937,0.023826,0.226836,-0.090692,0.044821,-0.517812,-0.854319,-0.047064,0.078542,-0.012807,17.545519,-9.715512,-30.950134,,,,,,,
1504197103.258321,0.055667,0.544457,0.255857,0.019998,0.281214,-0.091862,0.047593,-0.517954,-0.854084,-0.045457,0.077631,-0.009991,18.070284,-9.488599,-30.725525,,,,,,,
1504197103.268331,0.059263,0.544568,0.254760,0.014888,0.307899,-0.094053,0.050661,-0.518049,-0.853850,-0.039995,0.074964,-0.012026,18.070284,-9.488599,-30.725525,,,,,,,
1504197103.278341,0.062862,0.544567,0.253639,0.002011,0.297351,-0.096191,0.053734,-0.518048,-0.853662,-0.033989,0.076764,-0.019537,18.145510,-9.488553,-30.575348,,,,,,,
1504197103.288350,0.065121,0.542348,0.253023,-0.005823,0.254784,-0.097204,0.055737,-0.516148,-0.854684,-0.024639,0.075200,-0.034888,18.145510,-9.488553,-30.575348,,,,,,,
1504197103.298360,0.067815,0.542199,0.251866,-0.007354,0.194062,-0.101369,0.058044,-0.516020,-0.854607,-0.014145,0.073745,-0.053428,18.521532,-9.712476,-30.272705,,,,,,,
1504197103.308370,0.069923,0.542077,0.250665,-0.003540,0.135426,-0.104461,0.059850,-0.515916,-0.854546,-0.005010,0.070573,-0.063713,18.521532,-9.712476,-30.272705,,,,,,,
1504197103.318380,0.071545,0.541979,0.249425,-0.001787,0.086396,-0.106507,0.061240,-0.515833,-0.854498,0.003031,0.067911,-0.061091,18.746477,-9.786160,-30.421600,,,,,,,
1504197103.328389,0.073149,0.539564,0.248003,-0.008455,0.055553,-0.108594,0.062701,-0.513762,-0.855638,0.008862,0.066344,-0.056501,18.746477,-9.786160,-30.421600,,,,,,,
1504197103.338399,0.074164,0.539261,0.246697,-0.027889,0.021623,-0.117107,0.063581,-0.513502,-0.855730,0.009539,0.067015,-0.053816,18.821489,-9.785825,-30.421387,,,,,,,
1504197103.348409,0.074684,0.538592,0.245093,-0.065613,-0.047295,-0.151208,0.064051,-0.512928,-0.856039,0.010198,0.067997,-0.051768,18.821489,-9.785825,-30.421387,,,,,,,
1504197103.358419,0.074782,0.537772,0.243198,-0.066990,-0.099475,-0.172467,0.064167,-0.512224,-0.856452,0.027233,0.075090,-0.071298,18.820620,-9.485669,-30.498657,,,,,,,
1504197103.368428,0.076149,0.534188,0.240454,-0.048914,-0.107064,-0.179880,0.065477,-0.509143,-0.858188,0.037810,0.076907,-0.085644,18.820620,-9.485669,-30.498657,,,,,,,
1504197103.378438,0.076113,0.533676,0.238502,-0.037174,-0.098650,-0.167066,0.065466,-0.508702,-0.858450,0.012629,0.060643,-0.046442,18.745501,-9.261609,-30.200531,,,,,,,
1504197103.388448,0.076296,0.533268,0.236795,-0.027349,-0.056131,-0.143641,0.065639,-0.508350,-0.858645,0.002873,0.052417,-0.034802,18.745501,-9.261609,-30.200531,,,,,,,
1504197103.398458,0.077008,0.533012,0.235336,-0.010886,0.015106,-0.121323,0.066260,-0.508130,-0.858728,-0.014777,0.048108,-0.035300,18.895739,-9.485486,-30.423462,,,,,,,
1504197103.408468,0.077343,0.531606,0.234572,0.013005,0.082014,-0.102193,0.066603,-0.506918,-0.859417,-0.021482,0.045203,-0.025318,18.895739,-9.485486,-30.423462,,,,,,,
1504197103.418477,0.079176,0.531925,0.233433,0.049696,0.139245,-0.093691,0.068165,-0.507194,-0.859132,-0.021946,0.047904,-0.018309,18.970278,-9.260297,-30.349945,,,,,,,
1504197103.428487,0.081559,0.532585,0.232236,0.082143,0.190134,-0.100129,0.070185,-0.507762,-0.858633,-0.021082,0.053569,-0.014658,18.970278,-9.260297,-30.349945,,,,,,,
1504197103.438466,0.084447,0.533499,0.230893,0.108111,0.229357,-0.109760,0.072625,-0.508549,-0.857965,-0.013467,0.061223,-0.011939,18.970736,-9.485150,-30.423279,,,,,,,
1504197103.448476,0.087737,0.532840,0.229406,0.124407,0.262267,-0.120463,0.075477,-0.507982,-0.858055,-0.003501,0.066240,-0.012825,18.970736,-9.485150,-30.423279,,,,,,,
1504197103.458486,0.091144,0.534029,0.227784,0.130771,0.251569,-0.130039,0.078345,-0.509005,-0.857191,-0.001181,0.071353,-0.015277,19.195986,-9.409741,-30.123291,,,,,,,
1504197103.468496,0.094231,0.535145,0.226070,0.121929,0.207961,-0.138517,0.080937,-0.509966,-0.856378,-0.001561,0.071535,-0.019842,19.195986,-9.409741,-30.123291,,,,,,,
1504197103.478505,0.096615,0.536121,0.224268,0.109563,0.123889,-0.146929,0.082930,-0.510805,-0.855687,-0.003630,0.065859,-0.040370,19.421663,-9.633878,-30.046051,,,,,,,
1504197103.488515,0.097990,0.534624,0.222437,0.088640,0.037761,-0.160690,0.084181,-0.509517,-0.856333,-0.002272,0.064434,-0.054388,19.421663,-9.633878,-30.046051,,,,,,,
1504197103.498525,0.098975,0.535150,0.220318,0.061584,-0.022734,-0.180911,0.084999,-0.509970,-0.855982,0.003212,0.068533,-0.059392,19.571291,-9.483197,-30.046814,,,,,,,
1504197103.508535,0.099685,0.535371,0.218064,0.034767,-0.048075,-0.192654,0.085595,-0.510160,-0.855810,0.007376,0.072477,-0.059245,19.571291,-9.483197,-30.046814,,,,,,,
1504197103.518544,0.100398,0.535362,0.215768,0.014529,-0.045774,-0.195895,0.086206,-0.510152,-0.855753,0.003577,0.075139,-0.052755,19.496218,-9.408689,-29.972534,,,,,,,
1504197103.528554,0.100853,0.532919,0.213691,0.010188,-0.043621,-0.184165,0.086720,-0.508049,-0.856951,-0.003255,0.070687,-0.041517,19.496218,-9.408689,-29.972534,,,,,,,
1504197103.538564,0.101341,0.532868,0.211765,0.013206,-0.051130,-0.159597,0.087141,-0.508005,-0.856935,-0.005751,0.066462,-0.034286,19.346178,-9.484067,-30.122375,,,,,,,
1504197103.548574,0.101666,0.532874,0.210149,0.015241,-0.046912,-0.132915,0.087419,-0.508011,-0.856903,-0.014284,0.058365,-0.030930,19.346178,-9.484067,-30.122375,,,,,,,
1504197103.558583,0.102066,0.532839,0.208732,0.006807,-0.025545,-0.119091,0.087764,-0.507980,-0.856886,-0.022884,0.052109,-0.029955,19.570498,-9.257901,-30.198486,,,,,,,
1504197103.568593,0.101742,0.531125,0.207896,-0.000386,0.011802,-0.119176,0.087575,-0.506504,-0.857779,-0.022634,0.049366,-0.027917,19.570498,-9.257901,-30.198486,,,,,,,
1504197103.578603,0.101851,0.529337,0.206937,-0.003243,0.049127,-0.133128,0.087760,-0.504961,-0.858669,-0.024162,0.053530,-0.024052,19.419680,-8.883725,-30.126678,,,,,,,
1504197103.588613,0.102431,0.527562,0.205732,0.001242,0.069346,-0.149172,0.088350,-0.503428,-0.859508,-0.022523,0.057185,-0.019245,19.419680,-8.883725,-30.126678,,,,,,,
1504197103.598623,0.103312,0.525882,0.204226,0.019414,0.066012,-0.166217,0.089194,-0.501976,-0.860270,-0.019385,0.059776,-0.018484,19.495394,-9.258084,-30.273682,,,,,,,
1504197103.608632,0.104162,0.524360,0.202497,0.037350,0.037099,-0.176811,0.090004,-0.500659,-0.860953,-0.016396,0.059314,-0.022424,19.495394,-9.258084,-30.273682,,,,,,,
1504197103.618642,0.104874,0.522987,0.200643,0.046534,-0.007742,-0.169245,0.090689,-0.499470,-0.861571,-0.008505,0.055134,-0.029268,19.870607,-9.256711,-30.122772,,,,,,,
1504197103.628652,0.105212,0.521545,0.198827,0.042809,-0.061008,-0.154213,0.091056,-0.498220,-0.862256,-0.001014,0.053366,-0.039294,19.870607,-9.256711,-30.122772,,,,,,,
1504197103.638662,0.104941,0.519959,0.197177,0.031640,-0.113143,-0.142398,0.090905,-0.496845,-0.863065,0.000999,0.051090,-0.051806,19.420458,-9.333280,-30.348297,,,,,,,
1504197103.648671,0.104197,0.518250,0.195657,0.016464,-0.138596,-0.140244,0.090351,-0.495360,-0.863976,-0.001163,0.048614,-0.058311,19.420458,-9.333280,-30.348297,,,,,,,
1504197103.658681,0.103384,0.516499,0.194069,0.006934,-0.135308,-0.154143,0.089738,-0.493839,-0.864911,-0.003907,0.050083,-0.051197,19.420092,-8.959027,-29.976105,,,,,,,
1504197103.668691,0.102935,0.514843,0.192237,0.011524,-0.105488,-0.175536,0.089434,-0.492398,-0.865763,-0.004992,0.053067,-0.036581,19.420092,-8.959027,-29.976105,,,,,,,
1504197103.678701,0.103004,0.513420,0.190189,0.021487,-0.067195,-0.190530,0.089565,-0.491159,-0.866453,-0.005810,0.053873,-0.022402,19.495501,-9.258237,-30.198669,,,,,,,
1504197103.688710,0.103376,0.512353,0.188078,0.037711,-0.039621,-0.193753,0.089941,-0.490230,-0.866940,-0.008795,0.051708,-0.008914,19.495501,-9.258237,-30.198669,,,,,,,
1504197103.698720,0.103967,0.511766,0.185997,0.076270,-0.014374,-0.186260,0.090483,-0.489718,-0.867173,-0.010268,0.048311,-0.004806,19.420275,-9.258283,-30.348846,,,,,,,
1504197103.708730,0.104656,0.511555,0.184089,0.077324,-0.000555,-0.163868,0.091092,-0.489534,-0.867213,-0.010236,0.044099,0.005061,19.420275,-9.258283,-30.348846,,,,,,,
1504197103.718740,0.105402,0.511542,0.182391,0.055762,-0.011061,-0.137201,0.091739,-0.489522,-0.867151,-0.003971,0.035116,0.022089,19.270494,-9.259244,-30.199219,,,,,,,
1504197103.728750,0.105786,0.510904,0.180937,0.042703,-0.033345,-0.124375,0.092105,-0.488966,-0.867427,-0.002597,0.038725,-0.015630,19.270494,-9.259244,-30.199219,,,,,,,
1504197103.738759,0.105941,0.510075,0.179433,0.044593,-0.065323,-0.129652,0.092283,-0.488242,-0.867815,0.000521,0.042899,-0.024763,19.868792,-8.581555,-30.202820,,,,,,,
1504197103.748769,0.106885,0.508559,0.177313,0.044485,-0.084480,-0.143486,0.093180,-0.486919,-0.868462,0.017766,0.038311,-0.005683,19.868792,-8.581555,-30.202820,,,,,,,
1504197103.758779,0.106867,0.508732,0.175583,0.029567,-0.085417,-0.148847,0.093156,-0.487070,-0.868380,0.017791,0.038462,-0.005765,19.644777,-8.882855,-30.051117,,,,,,,
1504197103.768789,0.107343,0.507989,0.173644,0.011436,-0.082069,-0.146746,0.093608,-0.486421,-0.868696,0.014577,0.034928,-0.002032,19.644777,-8.882855,-30.051117,,,,,,,
1504197103.778798,0.107648,0.507121,0.171884,-0.015313,-0.083987,-0.136112,0.093918,-0.485663,-0.869086,0.011444,0.030447,-0.000558,19.493456,-8.358533,-30.055420,,,,,,,
1504197103.788808,0.107821,0.506098,0.170302,-0.042115,-0.091236,-0.123334,0.094122,-0.484768,-0.869564,0.012140,0.026669,0.001628,19.493456,-8.358533,-30.055420,,,,,,,
1504197103.798818,0.107842,0.504805,0.168935,-0.071091,-0.099538,-0.104153,0.094208,-0.483637,-0.870184,0.014481,0.024408,-0.001703,19.194262,-8.585187,-29.904480,,,,,,,
1504197103.808828,0.107633,0.503321,0.167814,-0.094744,-0.110014,-0.086027,0.094103,-0.482337,-0.870916,0.015272,0.020469,-0.006205,19.194262,-8.585187,-29.904480,,,,,,,
1504197103.818837,0.107132,0.501703,0.166920,-0.110977,-0.128009,-0.070009,0.093750,-0.480919,-0.871738,0.014908,0.017555,-0.007855,19.418550,-8.433728,-30.130066,,,,,,,
1504197103.828817,0.106275,0.499962,0.166240,-0.124008,-0.147093,-0.056120,0.093091,-0.479393,-0.872649,0.013094,0.017219,-0.010392,19.418550,-8.433728,-30.130066,,,,,,,
1504197103.838826,0.105137,0.498186,0.165719,-0.129520,-0.161975,-0.045427,0.092187,-0.477833,-0.873600,0.011756,0.015980,-0.011593,19.043428,-8.435254,-30.205963,,,,,,,
1504197103.848836,0.103801,0.496334,0.165328,-0.139250,-0.172557,-0.037952,0.091112,-0.476205,-0.874601,0.010679,0.014047,-0.013949,19.043428,-8.435254,-30.205963,,,,,,,
1504197103.858846,0.102301,0.494364,0.165032,-0.147869,-0.178883,-0.032618,0.089895,-0.474472,-0.875668,0.009348,0.015900,-0.015414,18.967836,-8.285291,-30.357269,,,,,,,
1504197103.868856,0.100678,0.491698,0.164807,-0.156369,-0.174546,-0.035842,0.088601,-0.472123,-0.877069,0.001044,0.021516,-0.017707,18.967836,-8.285291,-30.357269,,,,,,,
1504197103.878865,0.099177,0.490100,0.164568,-0.156208,-0.156429,-0.039076,0.087360,-0.470714,-0.877950,0.002286,0.020107,-0.016825,19.117373,-8.059766,-30.283630,,,,,,,
1504197103.888875,0.097828,0.487888,0.164300,-0.152923,-0.144734,-0.039091,0.086276,-0.468761,-0.879101,0.001584,0.025737,-0.013477,19.117373,-8.059766,-30.283630,,,,,,,
1504197103.898885,0.096525,0.485738,0.164047,-0.144356,-0.138413,-0.036952,0.085228,-0.466861,-0.880214,0.000832,0.027102,-0.013646,18.742647,-8.211301,-30.358398,,,,,,,
1504197103.908895,0.095191,0.483761,0.163842,-0.126258,-0.139633,-0.032650,0.084141,-0.465112,-0.881244,0.000301,0.024530,-0.017621,18.742647,-8.211301,-30.358398,,,,,,,
1504197103.918905,0.093762,0.481927,0.163633,-0.109305,-0.152561,-0.031530,0.082961,-0.463488,-0.882211,0.000657,0.025774,-0.020407,18.816927,-8.060529,-30.584381,,,,,,,
1504197103.928914,0.092262,0.480258,0.163381,-0.093472,-0.170809,-0.028268,0.081709,-0.462008,-0.883104,0.004885,0.026339,-0.020949,18.816927,-8.060529,-30.584381,,,,,,,
1504197103.938924,0.090686,0.478664,0.163115,-0.087230,-0.186847,-0.023958,0.080383,-0.460594,-0.883964,0.009354,0.027961,-0.018975,18.816362,-8.059781,-30.959381,,,,,,,
1504197103.948934,0.088985,0.477048,0.162869,-0.093794,-0.202780,-0.018603,0.078945,-0.459159,-0.884839,0.012973,0.026405,-0.022189,18.816362,-8.059781,-30.959381,,,,,,,
1504197103.958944,0.087155,0.475387,0.162682,-0.100258,-0.208055,-0.016469,0.077393,-0.457682,-0.885741,0.012146,0.026011,-0.023744,18.590944,-7.761228,-30.737183,,,,,,,
1504197103.968953,0.085367,0.473638,0.162529,-0.102276,-0.193117,-0.017566,0.075877,-0.456127,-0.886674,0.009618,0.026318,-0.024657,18.590944,-7.761228,-30.737183,,,,,,,
1504197103.978963,0.083861,0.472024,0.162333,-0.092398,-0.160159,-0.021876,0.074604,-0.454690,-0.887520,0.008023,0.026894,-0.018089,18.741396,-7.985410,-30.810120,,,,,,,
1504197103.988973,0.082686,0.470699,0.162080,-0.078102,-0.113379,-0.033675,0.073610,-0.453509,-0.888207,-0.000597,0.025256,-0.003822,18.741396,-7.985410,-30.810120,,,,,,,
1504197103.998983,0.081922,0.469625,0.161758,-0.065949,-0.066584,-0.043344,0.072971,-0.452552,-0.888747,-0.006977,0.023490,0.007583,18.515841,-7.761426,-30.812378,,,,,,,
1504197104.008992,0.081534,0.468667,0.161338,-0.060324,-0.035719,-0.052997,0.072662,-0.451697,-0.889207,-0.008682,0.022666,0.011888,18.515841,-7.761426,-30.812378,,,,,,,
1504197104.019002,0.081346,0.467727,0.160861,-0.058032,-0.018685,-0.058361,0.072529,-0.450859,-0.889644,-0.010411,0.022239,0.008861,18.665941,-7.760892,-30.737000,,,,,,,
1504197104.029012,0.081367,0.466706,0.160345,-0.062105,0.003729,-0.062678,0.072585,-0.449947,-0.890101,-0.010955,0.022869,0.003809,18.665941,-7.760892,-30.737000,,,,,,,
1504197104.039022,0.081534,0.465653,0.159801,-0.054525,0.016455,-0.065891,0.072772,-0.449007,-0.890560,-0.011386,0.024095,-0.003346,18.290728,-7.762280,-30.887939,,,,,,,
1504197104.049031,0.081884,0.464633,0.159122,-0.043523,0.027058,-0.077610,0.073122,-0.448094,-0.890991,-0.011003,0.024953,-0.008194,18.290728,-7.762280,-30.887939,,,,,,,
1504197104.059041,0.082407,0.463698,0.158194,-0.031602,0.034445,-0.104289,0.073622,-0.447258,-0.891370,-0.012556,0.026970,-0.006412,18.590837,-7.761090,-30.812195,,,,,,,
1504197104.069051,0.083203,0.462821,0.156862,-0.023918,0.039745,-0.140577,0.074364,-0.446474,-0.891701,-0.010720,0.027132,-0.005546,18.590837,-7.761090,-30.812195,,,,,,,
1504197104.079061,0.084326,0.461939,0.155091,-0.021561,0.047219,-0.174744,0.075399,-0.445684,-0.892009,-0.007878,0.027731,-0.005986,18.366518,-7.987241,-30.736053,,,,,,,
1504197104.089071,0.085613,0.460999,0.152961,-0.020421,0.038716,-0.204615,0.076582,-0.444843,-0.892328,-0.005278,0.029132,-0.007406,18.366518,-7.987241,-30.736053,,,,,,,
1504197104.099080,0.086771,0.460083,0.150548,-0.008815,0.008807,-0.228025,0.077650,-0.444023,-0.892645,-0.004851,0.027732,-0.016810,18.740831,-7.760404,-30.811829,,,,,,,
1504197104.109090,0.087676,0.459225,0.147825,0.007068,-0.024327,-0.258895,0.078492,-0.443253,-0.892953,-0.006761,0.027772,-0.026755,18.740831,-7.760404,-30.811829,,,,,,,
1504197104.119100,0.088418,0.458470,0.144724,0.030455,-0.054323,-0.291891,0.079184,-0.442576,-0.893228,-0.007513,0.032313,-0.029486,18.515459,-7.611417,-30.813507,,,,,,,
1504197104.129110,0.089110,0.457830,0.141249,0.045325,-0.079990,-0.321708,0.079827,-0.442003,-0.893455,-0.004113,0.033799,-0.028710,18.515459,-7.611417,-30.813507,,,,,,,
1504197104.139119,0.089648,0.457285,0.137485,0.054817,-0.107749,-0.346193,0.080329,-0.441514,-0.893651,-0.005195,0.034791,-0.026805,18.890123,-7.609281,-31.037567,,,,,,,
1504197104.149129,0.089979,0.456710,0.133389,0.046237,-0.135347,-0.383519,0.080648,-0.440997,-0.893878,-0.009268,0.034228,-0.023389,18.890123,-7.609281,-31.037567,,,,,,,
1504197104.159139,0.090266,0.456015,0.128784,0.038880,-0.153348,-0.436872,0.080932,-0.440374,-0.894159,-0.012802,0.033972,-0.024542,18.739519,-7.459653,-31.189056,,,,,,,
1504197104.169149,0.090777,0.455173,0.123428,0.043351,-0.170363,-0.507283,0.081423,-0.439618,-0.894487,-0.009798,0.039074,-0.026549,18.739519,-7.459653,-31.189056,,,,,,,
1504197104.179158,0.091526,0.454325,0.117146,0.059579,-0.192789,-0.590473,0.082127,-0.438856,-0.894796,-0.007924,0.044172,-0.024866,18.814928,-7.534619,-31.038330,,,,,,,
1504197104.189168,0.092498,0.453638,0.109825,0.093962,-0.217488,-0.681100,0.083024,-0.438239,-0.895016,-0.006821,0.047720,-0.023517,18.814928,-7.534619,-31.038330,,,,,,,
1504197104.199152,0.093635,0.453439,0.101440,0.134665,-0.252894,-0.771696,0.084050,-0.438060,-0.895008,-0.007756,0.052867,-0.021023,18.739443,-7.384809,-31.114624,,,,,,,
1504197104.209162,0.094702,0.453893,0.092164,0.155865,-0.311607,-0.838802,0.084986,-0.438467,-0.894720,-0.005488,0.051749,-0.016916,18.739443,-7.384809,-31.114624,,,,,,,
1504197104.219141,0.095433,0.454176,0.082373,0.141703,-0.370060,-0.875015,0.085628,-0.438722,-0.894534,-0.000530,0.036714,-0.030530,18.813463,-7.084180,-31.266724,,,,,,,
1504197104.229151,0.095681,0.454411,0.072391,0.095467,-0.426137,-0.893142,0.085841,-0.438933,-0.894410,-0.000742,0.036925,-0.030654,18.813463,-7.084180,-31.266724,,,,,,,
1504197104.239161,0.095354,0.454071,0.062297,0.041672,-0.492809,-0.910196,0.085562,-0.438628,-0.894586,-0.005789,0.028380,-0.045401,18.511889,-6.410672,-31.197510,,,,,,,
1504197104.249170,0.094444,0.453340,0.051897,0.010342,-0.563909,-0.946417,0.084778,-0.437970,-0.894983,-0.009263,0.024945,-0.058584,18.511889,-6.410672,-31.197510,,,,,,,
1504197104.259180,0.093071,0.452487,0.041032,0.010058,-0.626731,-0.990070,0.083584,-0.437203,-0.895470,-0.010022,0.027383,-0.066078,18.586321,-6.185330,-31.199005,,,,,,,
1504197104.269190,0.091367,0.451716,0.029727,0.021582,-0.675806,-1.026255,0.082089,-0.436510,-0.895947,-0.001492,0.030596,-0.061985,18.586321,-6.185330,-31.199005,,,,,,,
1504197104.279200,0.089315,0.451046,0.018298,0.028779,-0.711028,-1.028316,0.080276,-0.435907,-0.896404,0.001343,0.028910,-0.052967,17.909517,-5.737470,-31.654053,,,,,,,
1504197104.289209,0.086800,0.450392,0.007166,0.021930,-0.745108,-0.993043,0.078046,-0.435318,-0.896887,-0.005795,0.017243,-0.049982,17.909517,-5.737470,-31.654053,,,,,,,
1504197104.299219,0.083566,0.449705,-0.003362,0.010576,-0.794093,-0.934269,0.075170,-0.434700,-0.897433,-0.012136,-0.001289,-0.056944,17.759172,-5.737683,-31.879395,,,,,,,
1504197104.309229,0.079471,0.448949,-0.013321,-0.006157,-0.857936,-0.890422,0.071520,-0.434019,-0.898060,-0.020800,-0.017732,-0.062923,17.759172,-5.737683,-31.879395,,,,,,,
1504197104.319239,0.074676,0.448075,-0.023022,-0.025842,-0.910002,-0.877556,0.067242,-0.433231,-0.898771,-0.026547,-0.026120,-0.064455,17.457293,-5.213284,-32.259125,,,,,,,
1504197104.329248,0.069683,0.446982,-0.033005,-0.050382,-0.935332,-0.918115,0.062786,-0.432246,-0.899567,-0.029613,-0.022816,-0.061920,17.457293,-5.213284,-32.259125,,,,,,,
1504197104.339258,0.064870,0.445611,-0.043802,-0.076747,-0.949944,-1.003527,0.058494,-0.431009,-0.900450,-0.028694,-0.009146,-0.056704,17.081285,-4.989377,-32.561768,,,,,,,
1504197104.349268,0.060350,0.444110,-0.055747,-0.083864,-0.973217,-1.111306,0.054462,-0.429654,-0.901350,-0.017688,0.009625,-0.052492,17.081285,-4.989377,-32.561768,,,,,,,
1504197104.359278,0.055907,0.442668,-0.068940,-0.070901,-1.024354,-1.225405,0.050492,-0.428352,-0.902200,-0.011948,0.021613,-0.052954,16.405382,-4.766965,-32.790100,,,,,,,
1504197104.369287,0.051214,0.441403,-0.083332,-0.051823,-1.105388,-1.329835,0.046285,-0.427209,-0.902968,-0.015722,0.024545,-0.050951,16.405382,-4.766965,-32.790100,,,,,,,
1504197104.379297,0.045977,0.440207,-0.098653,-0.052204,-1.200145,-1.405454,0.041579,-0.426127,-0.903707,-0.014052,0.021067,-0.047052,16.104143,-4.318158,-32.869202,,,,,,,
1504197104.389307,0.039939,0.438856,-0.114441,-0.082722,-1.300027,-1.436285,0.036145,-0.424904,-0.904516,-0.005551,0.015694,-0.044474,16.104143,-4.318158,-32.869202,,,,,,,
1504197104.399317,0.032949,0.437121,-0.130224,-0.134666,-1.388050,-1.430883,0.029846,-0.423333,-0.905482,-0.003250,0.003747,-0.045201,15.202913,-4.096311,-33.323120,,,,,,,
1504197104.409327,0.025343,0.434961,-0.145843,-0.187306,-1.423862,-1.415967,0.022981,-0.421375,-0.906595,-0.011796,-0.011700,-0.048224,15.202913,-4.096311,-33.323120,,,,,,,
1504197104.419336,0.017763,0.432480,-0.161353,-0.225527,-1.396913,-1.410744,0.016127,-0.419123,-0.907786,-0.025999,-0.019368,-0.039403,14.600649,-3.423245,-33.704681,,,,,,,
1504197104.429346,0.010800,0.429872,-0.176827,-0.243092,-1.323245,-1.407702,0.009818,-0.416754,-0.908966,-0.031973,-0.014688,-0.011276,14.600649,-3.423245,-33.704681,,,,,,,
1504197104.439356,0.004599,0.427304,-0.192243,-0.244593,-1.240123,-1.401447,0.004185,-0.414419,-0.910077,-0.037266,-0.009287,0.016751,13.923540,-2.900235,-34.235321,,,,,,,
1504197104.449366,-0.001069,0.424990,-0.207554,-0.222896,-1.188099,-1.389760,-0.000974,-0.412311,-0.911043,-0.045626,-0.006619,0.036989,13.923540,-2.900235,-34.235321,,,,,,,
1504197104.459375,-0.006631,0.423078,-0.222659,-0.188733,-1.173482,-1.370513,-0.006047,-0.410569,-0.911809,-0.046932,-0.005172,0.040166,13.096407,-2.228345,-34.542389,,,,,,,
1504197104.469385,-0.012381,0.421572,-0.237512,-0.155889,-1.187630,-1.346949,-0.011296,-0.409196,-0.912377,-0.042659,-0.004623,0.028481,13.096407,-2.228345,-34.542389,,,,,,,
1504197104.479395,-0.018603,0.420434,-0.252185,-0.127528,-1.234764,-1.332940,-0.016982,-0.408157,-0.912754,-0.042497,0.000870,0.017887,12.345583,-1.856870,-34.472076,,,,,,,
1504197104.489405,-0.025512,0.419442,-0.266803,-0.131288,-1.303998,-1.331757,-0.023298,-0.407251,-0.913019,-0.040590,0.001398,0.008188,12.345583,-1.856870,-34.472076,,,,,,,
1504197104.499414,-0.033430,0.418217,-0.281455,-0.172334,-1.379300,-1.351976,-0.030543,-0.406132,-0.913304,-0.040166,0.004719,-0.002132,11.594011,-1.409635,-34.777283,,,,,,,
1504197104.509424,-0.041640,0.416529,-0.296664,-0.239944,-1.454357,-1.393590,-0.038069,-0.404589,-0.913706,-0.044374,0.005221,-0.014227,11.594011,-1.409635,-34.777283,,,,,,,
1504197104.519434,-0.050239,0.414104,-0.312572,-0.331855,-1.514271,-1.458755,-0.045974,-0.402370,-0.914322,-0.039750,0.009029,-0.019867,10.993151,-1.112180,-34.856049,,,,,,,
1504197104.529444,-0.059044,0.410927,-0.329312,-0.422565,-1.561402,-1.530345,-0.054097,-0.399459,-0.915153,-0.027156,0.017044,-0.020073,10.993151,-1.112180,-34.856049,,,,,,,
1504197104.539453,-0.068140,0.407108,-0.346719,-0.495254,-1.609769,-1.580554,-0.062523,-0.395956,-0.916139,-0.011818,0.015859,-0.015716,9.791613,-0.592282,-35.012939,,,,,,,
1504197104.549463,-0.077659,0.402793,-0.364493,-0.567081,-1.664568,-1.599795,-0.071372,-0.391990,-0.917197,-0.002892,0.007773,-0.004495,9.791613,-0.592282,-35.012939,,,,,,,
1504197104.559473,-0.087693,0.397830,-0.382409,-0.652791,-1.709682,-1.600931,-0.080741,-0.387419,-0.918361,-0.000070,-0.004472,0.006664,9.189348,0.080783,-35.394470,,,,,,,
1504197104.569483,-0.098373,0.392025,-0.400158,-0.753703,-1.763236,-1.562585,-0.090764,-0.382061,-0.919669,0.004002,-0.027440,0.007682,9.189348,0.080783,-35.394470,,,,,,,
1504197104.579493,-0.109963,0.385403,-0.417228,-0.848447,-1.816890,-1.477262,-0.101692,-0.375933,-0.921050,0.007377,-0.059355,0.004073,7.386995,0.972842,-35.480682,,,,,,,
1504197104.589502,-0.122380,0.378118,-0.433425,-0.909985,-1.849513,-1.384447,-0.113452,-0.369172,-0.922410,0.010119,-0.064620,0.000306,7.386995,0.972842,-35.480682,,,,,,,
1504197104.599482,-0.135233,0.370746,-0.448878,-0.912400,-1.842105,-1.316151,-0.125661,-0.362311,-0.923548,0.005254,-0.066095,0.016580,6.185198,1.642581,-35.563721,,,,,,,
1504197104.609491,-0.148036,0.363886,-0.463921,-0.858920,-1.807411,-1.287300,-0.137838,-0.355909,-0.924300,0.002508,-0.069216,0.043928,6.185198,1.642581,-35.563721,,,,,,,
1504197104.619501,-0.160398,0.358044,-0.478795,-0.769846,-1.739951,-1.282995,-0.149583,-0.350443,-0.924562,0.010224,-0.062598,0.079546,5.133547,2.387561,-35.421936,,,,,,,
1504197104.629511,-0.171809,0.353195,-0.493539,-0.685661,-1.618102,-1.280929,-0.160412,-0.345898,-0.924458,0.018673,-0.053715,0.122456,5.133547,2.387561,-35.421936,,,,,,,
1504197104.639521,-0.181694,0.349043,-0.508078,-0.640573,-1.439470,-1.264087,-0.169800,-0.341999,-0.924232,0.018555,-0.046749,0.156837,3.857882,2.606982,-35.501770,,,,,,,
1504197104.649530,-0.189659,0.345029,-0.522237,-0.644379,-1.221036,-1.220715,-0.177413,-0.338224,-0.924191,0.015731,-0.049227,0.178219,3.857882,2.606982,-35.501770,,,,,,,
1504197104.659540,-0.195590,0.340700,-0.535910,-0.677024,-1.001308,-1.168857,-0.183174,-0.334147,-0.924550,0.012917,-0.060003,0.181737,3.106386,3.203616,-35.508118,,,,,,,
1504197104.669550,-0.200497,0.336623,-0.549497,-0.637978,-0.932348,-1.185989,-0.187979,-0.330301,-0.924968,0.003317,-0.065023,0.167475,3.106386,3.203616,-35.508118,,,,,,,
1504197104.679560,-0.205424,0.333323,-0.563282,-0.566590,-0.961678,-1.213566,-0.192755,-0.327185,-0.925092,0.023108,-0.023844,0.125837,2.279726,3.949618,-35.365753,,,,,,,
1504197104.689569,-0.211794,0.330984,-0.577418,-0.476955,-1.136038,-1.281417,-0.198804,-0.324974,-0.924591,0.045179,0.009163,0.050018,2.279726,3.949618,-35.365753,,,,,,,
1504197104.699579,-0.219262,0.329780,-0.592236,-0.397443,-1.247436,-1.357936,-0.205789,-0.323835,-0.923462,0.029336,0.059797,-0.027313,1.303835,4.394931,-35.221558,,,,,,,
1504197104.709589,-0.227027,0.329390,-0.606900,-0.331402,-1.243746,-1.330075,-0.212981,-0.323466,-0.921959,0.042632,0.085597,-0.110542,1.303835,4.394931,-35.221558,,,,,,,
1504197104.719599,-0.234133,0.328671,-0.620599,-0.393944,-1.119743,-1.212988,-0.219581,-0.322785,-0.920649,0.062919,0.051331,-0.097967,0.253908,4.539615,-34.925262,,,,,,,
1504197104.729609,-0.239569,0.324360,-0.634026,-0.834381,-0.896708,-1.111674,-0.224910,-0.318702,-0.920784,0.053814,-0.013878,-0.036796,0.253908,4.539615,-34.925262,,,,,,,
1504197104.739618,-0.243679,0.317041,-0.647164,-0.993409,-0.846475,-1.020242,-0.229250,-0.311756,-0.922091,0.027056,-0.098919,0.043155,-0.497404,4.836993,-35.304382,,,,,,,
1504197104.749628,-0.253056,0.314308,-0.657070,-0.295973,-1.408709,-0.782146,-0.238099,-0.309158,-0.920723,0.007813,-0.178375,0.150062,-0.497404,4.836993,-35.304382,,,,,,,
1504197104.759638,-0.266415,0.315848,-0.665251,-0.070492,-1.526669,-0.828513,-0.250251,-0.310623,-0.916999,0.086661,-0.106903,0.087059,-1.322096,4.982394,-34.857513,,,,,,,
1504197104.769648,-0.274607,0.314707,-0.675737,-0.476820,-1.042617,-0.944282,-0.257850,-0.309538,-0.915259,0.197044,0.034178,-0.186013,-1.322096,4.982394,-34.857513,,,,,,,
1504197104.779657,-0.281067,0.311385,-0.686582,-0.626003,-0.978585,-0.879542,-0.264042,-0.306377,-0.914557,0.066883,-0.021046,-0.122033,-2.447081,4.977328,-34.860291,,,,,,,
1504197104.789667,-0.288002,0.307075,-0.697510,-0.735335,-1.046939,-0.888150,-0.270751,-0.302272,-0.913962,-0.004457,-0.025624,0.005286,-2.447081,4.977328,-34.860291,,,,,,,
1504197104.799677,-0.296239,0.302096,-0.709673,-0.831336,-1.245303,-0.996842,-0.278705,-0.297522,-0.913129,0.043720,-0.011590,0.031415,-2.897764,5.424716,-34.564789,,,,,,,
1504197104.809687,-0.306431,0.296878,-0.723364,-0.905126,-1.480059,-1.124644,-0.288462,-0.292536,-0.911709,0.053415,-0.012868,0.028469,-2.897764,5.424716,-34.564789,,,,,,,
1504197104.819696,-0.318099,0.291558,-0.738588,-0.963491,-1.651012,-1.248263,-0.299562,-0.287444,-0.909746,0.056749,0.026473,-0.035215,-4.323500,5.942554,-34.197266,,,,,,,
1504197104.829706,-0.331329,0.286333,-0.754535,-0.982768,-1.815983,-1.284297,-0.312056,-0.282437,-0.907111,0.021575,0.028759,-0.044686,-4.323500,5.942554,-34.197266,,,,,,,
1504197104.839716,-0.346082,0.281358,-0.770506,-0.976447,-1.953508,-1.274437,-0.325877,-0.277661,-0.903719,-0.007009,0.028332,-0.029767,-5.449629,6.611758,-33.830078,,,,,,,
1504197104.849726,-0.362411,0.276643,-0.785987,-0.942640,-2.093438,-1.217559,-0.341050,-0.273128,-0.899492,0.013734,0.028392,0.002764,-5.449629,6.611758,-33.830078,,,,,,,
1504197104.859735,-0.380614,0.272547,-0.800684,-0.879184,-2.257065,-1.153116,-0.357778,-0.269185,-0.894167,0.044393,-0.005580,0.058519,-6.949507,7.053378,-33.012146,,,,,,,
1504197104.869745,-0.400834,0.268665,-0.814776,-0.878878,-2.448936,-1.094070,-0.376189,-0.265445,-0.887706,0.062742,-0.016385,0.096400,-6.949507,7.053378,-33.012146,,,,,,,
1504197104.879755,-0.423820,0.264863,-0.829022,-0.903625,-2.757730,-1.119186,-0.396905,-0.261777,-0.879738,0.086724,-0.022586,0.101677,-8.598845,7.194613,-32.342316,,,,,,,
1504197104.889765,-0.451266,0.261389,-0.844057,-0.942676,-3.272037,-1.172784,-0.421291,-0.258422,-0.869328,0.100582,-0.008683,0.057652,-8.598845,7.194613,-32.342316,,,,,,,
1504197104.899775,-0.484616,0.257371,-0.859832,-1.086411,-3.908071,-1.182586,-0.450524,-0.254539,-0.855709,0.062020,-0.008492,-0.013447,-10.622633,7.109164,-31.671722,,,,,,,
1504197104.909784,-0.524828,0.252558,-0.876814,-1.253233,-4.636610,-1.204006,-0.485169,-0.249882,-0.837956,0.045899,-0.067379,-0.072704,-10.622633,7.109164,-31.671722,,,,,,,
1504197104.919794,-0.572663,0.246891,-0.894778,-1.448463,-5.418246,-1.176281,-0.525441,-0.244391,-0.814975,0.158070,-0.162332,-0.100735,-13.546186,7.243625,-30.480042,,,,,,,
1504197104.929804,-0.627073,0.240009,-0.914169,-1.707893,-6.081086,-1.135001,-0.569957,-0.237712,-0.786538,0.288173,-0.199086,-0.095771,-13.546186,7.243625,-30.480042,,,,,,,
1504197104.939814,-0.686431,0.231768,-0.935125,-1.981048,-6.575475,-1.066290,-0.616835,-0.229698,-0.752830,0.407789,-0.207252,-0.102806,-16.619322,7.750613,-28.391541,,,,,,,
1504197104.949823,-0.749411,0.222555,-0.957995,-2.214827,-6.868702,-1.084324,-0.664407,-0.220722,-0.714034,0.480539,-0.198360,-0.096207,-16.619322,7.750613,-28.391541,,,,,,,
1504197104.959833,-0.812596,0.214325,-0.983703,-2.389747,-6.831923,-1.251206,-0.709463,-0.212688,-0.671883,0.506109,-0.201207,-0.060630,-20.516371,8.551517,-25.107300,,,,,,,
1504197104.969843,-0.871227,0.208808,-1.012579,-2.497111,-6.302189,-1.552267,-0.748500,-0.207294,-0.629902,0.506358,-0.185483,0.010945,-20.516371,8.551517,-25.107300,,,,,,,
1504197104.979853,-0.920824,0.207588,-1.044622,-2.526977,-5.360584,-1.971333,-0.779009,-0.206100,-0.592172,0.492922,-0.165238,0.107202,-23.511320,8.456592,-21.889069,,,,,,,
1504197104.989832,-0.958378,0.211539,-1.079131,-2.477859,-4.164923,-2.417396,-0.800020,-0.209965,-0.562034,0.459963,-0.166332,0.200950,-23.511320,8.456592,-21.889069,,,,,,,
1504197104.999842,-0.983231,0.220255,-1.115230,-2.395956,-2.962145,-2.794033,-0.812186,-0.218479,-0.540944,0.407264,-0.192975,0.282720,-25.456068,8.067157,-19.040985,,,,,,,
1504197105.009851,-0.997379,0.232511,-1.152057,-2.312544,-2.028038,-3.047443,-0.817447,-0.230422,-0.527908,0.357852,-0.224748,0.326400,-25.456068,8.067157,-19.040985,,,,,,,
1504197105.019861,-1.004802,0.246478,-1.189472,-2.313547,-1.546278,-3.144360,-0.818546,-0.243990,-0.520049,0.328983,-0.237470,0.307906,-26.501020,7.308246,-16.937927,,,,,,,
1504197105.029871,-1.011282,0.260387,-1.227020,-2.337987,-1.639895,-3.100474,-0.818944,-0.257455,-0.512882,0.322774,-0.214744,0.234669,-26.501020,7.308246,-16.937927,,,,,,,
1504197105.039881,-1.020653,0.273800,-1.264969,-2.424798,-2.062268,-3.057184,-0.820696,-0.270392,-0.503335,0.333422,-0.148507,0.117593,-27.922209,6.325046,-16.034088,,,,,,,
1504197105.049891,-1.035470,0.287117,-1.303644,-2.526933,-2.717808,-3.059385,-0.824894,-0.283188,-0.489239,0.342441,-0.117035,0.023404,-27.922209,6.325046,-16.034088,,,,,,,
1504197105.059900,-1.055454,0.300234,-1.344197,-2.752452,-3.322241,-3.092867,-0.831201,-0.295744,-0.470787,0.344751,-0.108736,0.000527,-28.591093,4.968417,-14.225586,,,,,,,
1504197105.069910,-1.080241,0.314118,-1.386823,-2.929395,-3.904616,-3.204224,-0.838911,-0.308977,-0.448064,0.335585,-0.092069,0.019170,-28.591093,4.968417,-14.225586,,,,,,,
1504197105.079920,-1.108472,0.329809,-1.431547,-3.088690,-4.329348,-3.392681,-0.846780,-0.323863,-0.421990,0.314783,-0.120519,0.082025,-29.184843,3.910922,-11.819153,,,,,,,
1504197105.089930,-1.137611,0.348072,-1.478666,-3.256505,-4.520585,-3.638137,-0.853204,-0.341086,-0.394591,0.306482,-0.106881,0.118865,-29.184843,3.910922,-11.819153,,,,,,,
1504197105.099939,-1.166795,0.369935,-1.527549,-3.279863,-4.683134,-3.921820,-0.857292,-0.361555,-0.366507,0.314339,-0.045290,0.173316,-30.075804,2.100894,-8.807800,,,,,,,
1504197105.109949,-1.195955,0.395835,-1.576497,-3.182021,-4.750803,-4.180910,-0.858610,-0.385578,-0.337814,0.349897,-0.016109,0.248917,-30.075804,2.100894,-8.807800,,,,,,,
1504197105.119959,-1.223709,0.425602,-1.624118,-2.970020,-4.641531,-4.369665,-0.856477,-0.412869,-0.309815,0.378496,-0.066897,0.281937,-30.590330,-0.456845,-6.089905,,,,,,,
1504197105.129969,-1.250316,0.458641,-1.669038,-2.695592,-4.540328,-4.466502,-0.851001,-0.442730,-0.282466,0.398059,-0.055286,0.335719,-30.590330,-0.456845,-6.089905,,,,,,,
1504197105.139978,-1.274795,0.493915,-1.711610,-2.479300,-4.341723,-4.516645,-0.842192,-0.474076,-0.256835,0.402434,0.002122,0.369933,-30.279722,-2.936337,-3.145538,,,,,,,
1504197105.149988,-1.297145,0.531085,-1.751544,-2.240583,-4.132662,-4.553959,-0.830174,-0.506469,-0.233024,0.389118,0.063629,0.385826,-30.279722,-2.936337,-3.145538,,,,,,,
1504197105.159998,-1.316129,0.570326,-1.789761,-2.083765,-3.805632,-4.667409,-0.814577,-0.539906,-0.212050,0.351687,0.065526,0.422102,-29.819181,-5.788800,-0.872986,,,,,,,
1504197105.170008,-1.330350,0.611647,-1.825963,-1.817725,-3.277067,-4.751137,-0.795151,-0.574217,-0.194963,0.290176,0.022642,0.437013,-29.819181,-5.788800,-0.872986,,,,,,,
1504197105.180017,-1.337601,0.653818,-1.856479,-1.257354,-2.238586,-4.630313,-0.772282,-0.608222,-0.183430,0.230092,0.007331,0.467853,-28.609129,-8.712018,0.951965,,,,,,,
1504197105.190027,-1.335773,0.696153,-1.881510,-0.829527,-1.126504,-4.556815,-0.746221,-0.641271,-0.178681,0.127797,0.030934,0.558106,-28.609129,-8.712018,0.951965,,,,,,,
1504197105.200040,-1.328846,0.738349,-1.902979,-0.497559,-0.632793,-4.437562,-0.718039,-0.673068,-0.177201,-0.009073,0.042330,0.705140,-27.325743,-11.557935,1.801514,,,,,,,
1504197105.210050,-1.322008,0.778848,-1.921733,-0.295002,-0.632586,-4.190641,-0.689810,-0.702460,-0.175248,-0.107416,0.112479,0.632004,-27.325743,-11.557935,1.801514,,,,,,,
1504197105.220060,-1.319532,0.816642,-1.938111,-0.127124,-1.041383,-3.849128,-0.663173,-0.728851,-0.170229,-0.154896,0.168212,0.446520,-25.820097,-13.801206,1.822113,,,,,,,
1504197105.230069,-1.324751,0.851269,-1.950980,0.061520,-1.635797,-3.476297,-0.639181,-0.752117,-0.160520,-0.194238,0.119183,0.330243,-25.820097,-13.801206,1.822113,,,,,,,
1504197105.240079,-1.338866,0.882586,-1.960109,0.202923,-2.251160,-3.077893,-0.618149,-0.772384,-0.145995,-0.230636,0.105438,0.243148,-24.539381,-15.671826,2.514343,,,,,,,
1504197105.250089,-1.360741,0.910463,-1.965496,0.310478,-2.708516,-2.699039,-0.599897,-0.789788,-0.127898,-0.269426,0.087319,0.189284,-24.539381,-15.671826,2.514343,,,,,,,
1504197105.260099,-1.388644,0.935291,-1.966976,0.426323,-2.960228,-2.369635,-0.583764,-0.804772,-0.107526,-0.276740,0.118447,0.185376,-23.183943,-17.167995,3.653931,,,,,,,
1504197105.270108,-1.420530,0.957617,-1.964978,0.507807,-3.030408,-2.133474,-0.568985,-0.817823,-0.086149,-0.273575,0.151426,0.220365,-23.183943,-17.167995,3.653931,,,,,,,
1504197105.280118,-1.455955,0.978308,-1.958745,0.667205,-3.001002,-1.957128,-0.554748,-0.829554,-0.063990,-0.266770,0.161249,0.266764,-21.978971,-18.290447,5.090363,,,,,,,
1504197105.290128,-1.493888,0.997440,-1.947057,0.880861,-2.740779,-1.807781,-0.540851,-0.840085,-0.041678,-0.286160,0.121823,0.315039,-21.978971,-18.290447,5.090363,,,,,,,
1504197105.300138,-1.533790,1.015202,-1.929051,1.124305,-2.375279,-1.686319,-0.527087,-0.849587,-0.019514,-0.321714,0.073983,0.372832,-20.550489,-18.737194,6.672272,,,,,,,
1504197105.310147,-1.576119,1.031119,-1.904876,1.327236,-2.116044,-1.527382,-0.513852,-0.857875,0.002735,-0.332721,0.028193,0.423168,-20.550489,-18.737194,6.672272,,,,,,,
1504197105.320157,-1.621688,1.044423,-1.876434,1.427424,-2.128813,-1.312638,-0.501751,-0.864635,0.025557,-0.285099,0.058116,0.339052,-19.196913,-19.483364,7.806274,,,,,,,
1504197105.330167,-1.671835,1.054647,-1.845387,1.469940,-2.402203,-1.076186,-0.491018,-0.869726,0.049781,-0.295832,0.063208,0.314828,-19.196913,-19.483364,7.806274,,,,,,,
1504197105.340177,-1.725832,1.062122,-1.814185,1.395708,-2.769406,-0.899546,-0.481178,-0.873391,0.075204,-0.262444,0.121835,0.202049,-17.919294,-19.630627,9.310577,,,,,,,
1504197105.350186,-1.782186,1.068111,-1.783969,1.310030,-3.044744,-0.847974,-0.471056,-0.876292,0.101087,-0.216398,0.146708,0.126513,-17.919294,-19.630627,9.310577,,,,,,,
1504197105.360196,-1.839642,1.073431,-1.753734,1.276766,-3.081744,-0.869314,-0.459973,-0.878843,0.126730,-0.181186,0.106733,0.121622,-17.316587,-19.855770,10.738800,,,,,,,
1504197105.370206,-1.896976,1.078399,-1.721876,1.311972,-2.857122,-0.936895,-0.447813,-0.881202,0.151478,-0.192461,0.008339,0.175273,-17.316587,-19.855770,10.738800,,,,,,,
1504197105.380185,-1.953436,1.082914,-1.687132,1.398576,-2.477344,-1.006796,-0.434857,-0.883327,0.175020,-0.212222,-0.081745,0.245207,-15.739546,-19.776684,12.242126,,,,,,,
1504197105.390195,-2.008724,1.086453,-1.649359,1.500940,-2.098810,-1.029702,-0.421688,-0.884981,0.197456,-0.219136,-0.107100,0.291421,-15.739546,-19.776684,12.242126,,,,,,,
1504197105.400205,-2.063278,1.088419,-1.609562,1.581341,-1.893851,-0.991498,-0.408759,-0.885894,0.219332,-0.217492,-0.112854,0.292585,-14.463133,-19.623333,13.444153,,,,,,,
1504197105.410215,-2.118181,1.088302,-1.569087,1.651036,-1.924362,-0.895257,-0.396196,-0.885840,0.241487,-0.206328,-0.104730,0.240264,-14.463133,-19.623333,13.444153,,,,,,,
1504197105.420224,-2.174243,1.085952,-1.529251,1.685037,-2.138944,-0.782742,-0.383755,-0.884748,0.264487,-0.186130,-0.091464,0.153024,-13.411070,-19.770855,14.572876,,,,,,,
1504197105.430234,-2.230868,1.082030,-1.491545,1.635747,-2.386899,-0.709807,-0.370910,-0.882913,0.287908,-0.157273,-0.091910,0.067805,-13.411070,-19.770855,14.572876,,,,,,,
1504197105.440244,-2.287104,1.077508,-1.455966,1.565592,-2.496063,-0.723612,-0.357149,-0.880781,0.310918,-0.143843,-0.111712,0.016566,-12.284803,-19.468502,15.923462,,,,,,,
1504197105.450254,-2.341229,1.072489,-1.421582,1.541370,-2.329619,-0.734622,-0.342974,-0.878393,0.332859,-0.167479,-0.162775,0.022107,-12.284803,-19.468502,15.923462,,,,,,,
1504197105.460263,-2.390864,1.066362,-1.388452,1.550607,-1.952510,-0.698979,-0.329702,-0.875448,0.353394,-0.225199,-0.214838,0.077621,-11.085035,-18.790035,16.896362,,,,,,,
1504197105.470273,-2.434532,1.059314,-1.357141,1.531417,-1.521897,-0.653873,-0.317961,-0.872020,0.372132,-0.288759,-0.258351,0.144928,-11.085035,-18.790035,16.896362,,,,,,,
1504197105.480283,-2.471041,1.051622,-1.328934,1.452231,-1.087650,-0.553373,-0.308325,-0.868229,0.388733,-0.336786,-0.248088,0.164276,-9.884550,-18.486294,17.722076,,,,,,,
1504197105.490293,-2.499600,1.043617,-1.305735,1.296945,-0.787115,-0.383388,-0.301251,-0.864229,0.402933,-0.356250,-0.215498,0.130300,-9.884550,-18.486294,17.722076,,,,,,,
1504197105.500302,-2.522199,1.035665,-1.288670,1.101487,-0.817688,-0.176596,-0.296049,-0.860202,0.415220,-0.342211,-0.189023,0.088625,-9.284330,-18.035381,18.620209,,,,,,,
1504197105.510312,-2.541890,1.028015,-1.277636,0.900851,-1.100756,0.022092,-0.291522,-0.856275,0.426388,-0.307248,-0.152163,0.012332,-9.284330,-18.035381,18.620209,,,,,,,
1504197105.520322,-2.560331,1.020874,-1.271582,0.723899,-1.391423,0.166397,-0.286960,-0.852565,0.436791,-0.217144,-0.134587,-0.055108,-8.759565,-17.584225,19.218109,,,,,,,
1504197105.530332,-2.578285,1.014441,-1.268419,0.604972,-1.555664,0.216649,-0.281995,-0.849186,0.446501,-0.222110,-0.137967,-0.064817,-8.759565,-17.584225,19.218109,,,,,,,
1504197105.540342,-2.595350,1.008353,-1.266079,0.586466,-1.472388,0.210065,-0.277016,-0.845955,0.455657,-0.204140,-0.153114,-0.001738,-7.784010,-17.580578,19.595520,,,,,,,
1504197105.550351,-2.610671,1.001886,-1.263078,0.658131,-1.196964,0.187288,-0.272766,-0.842488,0.464555,-0.215195,-0.188487,0.086623,-7.784010,-17.580578,19.595520,,,,,,,
1504197105.560361,-2.623399,0.994954,-1.259552,0.702032,-0.913870,0.181528,-0.269718,-0.838734,0.473052,-0.223690,-0.212902,0.176729,-7.558867,-17.280773,20.193848,,,,,,,
1504197105.570371,-2.634950,0.987417,-1.255472,0.795904,-0.786765,0.175062,-0.267295,-0.834606,0.481649,-0.226006,-0.233586,0.220758,-7.558867,-17.280773,20.193848,,,,,,,
1504197105.580381,-2.645753,0.978631,-1.251220,0.912453,-0.718522,0.233851,-0.265556,-0.829734,0.490939,-0.216897,-0.238625,0.170499,-7.259459,-16.680614,20.790100,,,,,,,
1504197105.590390,-2.656578,0.968644,-1.247825,0.985670,-0.848152,0.320666,-0.264076,-0.824118,0.501092,-0.182594,-0.241433,0.123359,-7.259459,-16.680614,20.790100,,,,,,,
1504197105.600400,-2.669045,0.958327,-1.245487,0.962983,-1.122936,0.364875,-0.261665,-0.818231,0.511889,-0.131600,-0.244468,0.094984,-6.810118,-16.154491,21.237274,,,,,,,
1504197105.610410,-2.683692,0.948467,-1.243761,0.915206,-1.372937,0.344952,-0.257693,-0.812523,0.522877,-0.092267,-0.204597,0.025524,-6.810118,-16.154491,21.237274,,,,,,,
1504197105.620420,-2.698758,0.939016,-1.242043,0.887923,-1.336448,0.311751,-0.253066,-0.806977,0.533615,-0.078416,-0.174681,-0.012146,-6.060530,-15.851560,21.461853,,,,,,,
1504197105.630429,-2.711586,0.929664,-1.240038,0.901253,-1.024302,0.278134,-0.249335,-0.801419,0.543654,-0.092416,-0.173663,0.014910,-6.060530,-15.851560,21.461853,,,,,,,
1504197105.640439,-2.719439,0.920967,-1.238127,0.807410,-0.503485,0.247166,-0.247905,-0.796187,0.551932,-0.116200,-0.176088,0.092858,-5.536436,-15.175244,21.983154,,,,,,,
1504197105.650449,-2.720965,0.914510,-1.237105,0.533810,0.072118,0.192307,-0.249157,-0.792263,0.556992,-0.139775,-0.160495,0.144943,-5.536436,-15.175244,21.983154,,,,,,,
1504197105.660459,-2.714954,0.912854,-1.238100,-0.043481,0.670511,0.096320,-0.253043,-0.791252,0.556677,-0.153390,-0.201607,0.022913,-5.236555,-14.949491,22.282166,,,,,,,
1504197105.670468,-2.702277,0.918815,-1.242801,-0.878282,0.942840,-0.018752,-0.258069,-0.794883,0.549146,-0.126911,-0.251534,-0.228483,-5.236555,-14.949491,22.282166,,,,,,,
1504197105.680478,-2.686587,0.931250,-1.251710,-1.461775,0.801697,-0.055805,-0.262288,-0.802367,0.536109,-0.063792,-0.422105,-0.616569,-5.762190,-14.876264,21.980347,,,,,,,
1504197105.690488,-2.671480,0.945701,-1.263636,-1.634550,0.443956,-0.001036,-0.265076,-0.810907,0.521694,-0.046417,-0.638418,-0.977535,-5.762190,-14.876264,21.980347,,,,,,,
1504197105.700498,-2.659539,0.959550,-1.276839,-1.535808,0.023229,0.063921,-0.266055,-0.818933,0.508491,-0.058790,-0.608145,-0.716209,-6.060072,-15.852170,21.761902,,,,,,,
1504197105.710508,-2.651184,0.970209,-1.289723,-1.182605,-0.298416,0.181447,-0.266167,-0.825004,0.498521,-0.051063,-0.386895,-0.262041,-6.060072,-15.852170,21.761902,,,,,,,
1504197105.720517,-2.646276,0.976473,-1.300582,-0.725165,-0.421605,0.253973,-0.266149,-0.828528,0.492652,-0.050669,-0.196695,0.049248,-6.210081,-16.301342,21.014893,,,,,,,
1504197105.730527,-2.644018,0.978746,-1.307848,-0.292364,-0.344169,0.239642,-0.266361,-0.829798,0.490394,-0.055630,-0.139013,0.270195,-6.210081,-16.301342,21.014893,,,,,,,
1504197105.740537,-2.642417,0.978729,-1.311787,-0.060762,-0.106253,0.177715,-0.267153,-0.829789,0.489980,-0.056135,-0.117233,0.367564,-6.134809,-16.450848,20.941193,,,,,,,
1504197105.750547,-2.639785,0.978339,-1.314180,-0.035263,0.115235,0.126133,-0.268597,-0.829571,0.489559,-0.022388,-0.110172,0.345662,-6.134809,-16.450848,20.941193,,,,,,,
1504197105.760526,-2.635251,0.978414,-1.317203,-0.106057,0.220217,0.155713,-0.270784,-0.829613,0.488281,0.018983,-0.084419,0.177658,-5.984968,-16.300472,21.090424,,,,,,,
1504197105.770536,-2.630063,0.978832,-1.321169,-0.158862,0.163095,0.169598,-0.273144,-0.829846,0.486567,-0.017780,-0.028781,-0.070140,-5.984968,-16.300472,21.090424,,,,,,,
1504197105.780545,-2.626082,0.979911,-1.324900,-0.205220,0.066568,0.110981,-0.274637,-0.830448,0.484697,-0.016287,-0.028179,-0.068269,-6.284513,-16.526684,21.016388,,,,,,,
1504197105.790555,-2.623067,0.981494,-1.327764,-0.217624,0.075264,0.044765,-0.275445,-0.831329,0.482724,-0.001685,-0.001496,-0.029660,-6.284513,-16.526684,21.016388,,,,,,,
1504197105.800565,-2.619997,0.983542,-1.329572,-0.232307,0.190553,-0.035519,-0.276077,-0.832465,0.480399,0.043091,0.017478,0.003960,-6.358686,-16.901867,20.944000,,,,,,,
1504197105.810575,-2.616733,0.986283,-1.330046,-0.257452,0.314482,-0.143588,-0.276499,-0.833981,0.477519,0.048578,0.039623,0.039311,-6.358686,-16.901867,20.944000,,,,,,,
1504197105.820584,-2.614238,0.989752,-1.328676,-0.259516,0.377501,-0.270724,-0.276232,-0.835890,0.474324,0.064364,0.057966,0.054240,-6.583906,-16.678326,21.166779,,,,,,,
1504197105.830594,-2.612947,0.993494,-1.325305,-0.211718,0.423030,-0.368923,-0.275265,-0.837938,0.471264,0.089351,0.050707,0.047520,-6.583906,-16.678326,21.166779,,,,,,,
1504197105.840604,-2.612388,0.996585,-1.320189,-0.092473,0.506262,-0.398750,-0.274219,-0.839621,0.468871,0.079685,0.004080,0.046555,-6.434126,-16.901608,20.643829,,,,,,,
1504197105.850614,-2.611469,0.998521,-1.314334,0.018043,0.608674,-0.359245,-0.273827,-0.840671,0.467216,0.026177,-0.032452,0.060555,-6.434126,-16.901608,20.643829,,,,,,,
1504197105.860623,-2.609836,0.999418,-1.308266,0.111300,0.688848,-0.317596,-0.274208,-0.841156,0.466118,-0.047829,-0.037063,0.072853,-6.809324,-16.828289,20.642334,,,,,,,
1504197105.870633,-2.607896,0.999298,-1.301979,0.202059,0.722158,-0.278004,-0.275163,-0.841092,0.465672,-0.110320,-0.019275,0.059398,-6.809324,-16.828289,20.642334,,,,,,,
1504197105.880643,-2.606586,0.998915,-1.295862,0.192527,0.608200,-0.260741,-0.275937,-0.840884,0.465589,-0.110965,-0.021710,0.041202,-6.958830,-16.979122,20.718079,,,,,,,
1504197105.890653,-2.606005,0.998992,-1.290849,0.110944,0.434078,-0.226418,-0.276174,-0.840926,0.465372,-0.080012,-0.034883,-0.020990,-6.958830,-16.979122,20.718079,,,,,,,
1504197105.900663,-2.605832,0.999485,-1.287267,0.041243,0.285420,-0.180379,-0.276043,-0.841193,0.464968,-0.032108,-0.021738,-0.122881,-7.109434,-16.829494,20.566589,,,,,,,
1504197105.910672,-2.605630,1.000131,-1.284806,0.005238,0.213211,-0.136550,-0.275859,-0.841542,0.464445,-0.002522,0.000905,-0.151029,-7.109434,-16.829494,20.566589,,,,,,,
1504197105.920682,-2.605272,1.000704,-1.282919,0.004928,0.189745,-0.111959,-0.275779,-0.841851,0.463932,0.011604,0.018090,-0.094440,-7.409422,-16.830837,20.565857,,,,,,,
1504197105.930692,-2.604928,1.001065,-1.281074,0.024110,0.192773,-0.102325,-0.275784,-0.842046,0.463576,0.012829,0.015874,-0.004820,-7.409422,-16.830837,20.565857,,,,,,,
1504197105.940702,-2.604273,1.001288,-1.279225,0.035079,0.234235,-0.095974,-0.275991,-0.842166,0.463234,0.012731,0.003726,0.048882,-7.334394,-16.755795,20.715454,,,,,,,
1504197105.950711,-2.602888,1.001253,-1.277411,0.060123,0.310730,-0.074718,-0.276647,-0.842147,0.462876,0.010091,-0.004761,0.058044,-7.334394,-16.755795,20.715454,,,,,,,
1504197105.960721,-2.600619,1.000653,-1.276016,0.099586,0.345509,-0.016004,-0.277957,-0.841824,0.462680,-0.001783,-0.014912,0.049969,-7.409575,-16.681133,20.714722,,,,,,,
1504197105.970731,-2.598064,0.999557,-1.275743,0.097304,0.244211,0.065294,-0.279615,-0.841231,0.462758,-0.008593,-0.021027,0.034373,-7.409575,-16.681133,20.714722,,,,,,,
1504197105.980741,-2.595802,0.998226,-1.277181,0.065469,0.056831,0.158433,-0.281242,-0.840511,0.463081,-0.001366,-0.032673,-0.003807,-7.484571,-16.681469,20.714539,,,,,,,
1504197105.990750,-2.594096,0.996567,-1.279944,0.067080,-0.096704,0.231290,-0.282757,-0.839611,0.463790,0.006894,-0.030353,-0.048080,-7.484571,-16.681469,20.714539,,,,,,,
1504197106.000760,-2.592815,0.994543,-1.283236,0.083513,-0.156546,0.263446,-0.284237,-0.838510,0.464876,0.028347,-0.021643,-0.051424,-7.408674,-17.130840,20.568115,,,,,,,
1504197106.010770,-2.591741,0.992353,-1.286236,0.108313,-0.133292,0.248504,-0.285695,-0.837314,0.466136,0.044927,-0.030193,-0.012828,-7.408674,-17.130840,20.568115,,,,,,,
1504197106.020780,-2.590720,0.990003,-1.288244,0.156243,-0.036673,0.205721,-0.287200,-0.836028,0.467519,0.053832,-0.048173,0.016200,-7.484007,-16.906475,20.716217,,,,,,,
1504197106.030789,-2.589311,0.987263,-1.289277,0.217039,0.084322,0.189602,-0.289059,-0.834521,0.469062,0.045315,-0.069394,0.030328,-7.484007,-16.906475,20.716217,,,,,,,
1504197106.040799,-2.587329,0.984248,-1.290011,0.235652,0.147033,0.194861,-0.291311,-0.832856,0.470625,0.020605,-0.094726,0.040468,-7.710218,-16.382641,20.786743,,,,,,,
1504197106.050809,-2.584945,0.981387,-1.291207,0.195072,0.131390,0.210848,-0.293690,-0.831269,0.471951,0.004323,-0.094527,0.025516,-7.710218,-16.382641,20.786743,,,,,,,
1504197106.060819,-2.582795,0.979356,-1.293128,0.093095,0.042739,0.192682,-0.295598,-0.830139,0.472749,0.005269,-0.062439,-0.000291,-8.084944,-16.309917,21.085236,,,,,,,
1504197106.070829,-2.581045,0.977926,-1.295329,0.052201,-0.012317,0.174563,-0.297056,-0.829340,0.473236,0.027861,-0.029165,-0.028274,-8.084944,-16.309917,21.085236,,,,,,,
1504197106.080838,-2.579664,0.976337,-1.296883,0.106989,0.019225,0.150052,-0.298411,-0.828451,0.473940,0.070857,-0.016412,-0.044725,-7.785185,-16.308270,20.935974,,,,,,,
1504197106.090848,-2.579021,0.974105,-1.297035,0.209917,0.062100,0.118132,-0.299701,-0.827199,0.475311,0.063190,-0.027827,0.009323,-7.785185,-16.308270,20.935974,,,,,,,
1504197106.100858,-2.579188,0.970856,-1.295659,0.357615,0.113109,0.107624,-0.301053,-0.825369,0.477632,0.033521,-0.050226,0.071288,-7.935743,-16.083950,20.933929,,,,,,,
1504197106.110868,-2.580050,0.966010,-1.292891,0.538111,0.152089,0.133486,-0.302768,-0.822624,0.481271,-0.005505,-0.070138,0.114783,-7.935743,-16.083950,20.933929,,,,,,,
1504197106.120877,-2.581301,0.959354,-1.289220,0.715164,0.181472,0.192448,-0.305069,-0.818821,0.486277,-0.046265,-0.073300,0.179799,-8.160658,-16.159801,20.858948,,,,,,,
1504197106.130887,-2.582898,0.951595,-1.285758,0.773902,0.095672,0.257813,-0.307650,-0.814342,0.492136,-0.068311,0.005077,0.236334,-8.160658,-16.159801,20.858948,,,,,,,
1504197106.140897,-2.585722,0.942664,-1.282581,0.887357,-0.076906,0.337301,-0.310085,-0.809127,0.499161,-0.065876,-0.000138,0.229309,-8.161039,-15.785550,21.231140,,,,,,,
1504197106.150876,-2.591275,0.932583,-1.279684,0.939621,-0.447153,0.389280,-0.311558,-0.803161,0.507802,-0.063762,0.000412,0.149836,-8.161039,-15.785550,21.231140,,,,,,,
1504197106.160886,-2.600823,0.925380,-1.279031,0.521560,-0.999884,0.323352,-0.309666,-0.798850,0.515700,-0.067410,-0.035547,0.140535,-8.462095,-15.187497,21.525879,,,,,,,
1504197106.170896,-2.610274,0.921708,-1.281111,0.179649,-1.083345,0.287682,-0.306262,-0.796635,0.521129,-0.029706,-0.038326,-0.081020,-8.462095,-15.187497,21.525879,,,,,,,
1504197106.180905,-2.614545,0.920400,-1.284009,-0.025237,-0.485878,0.181668,-0.304557,-0.795844,0.523333,0.073234,-0.010675,-0.429247,-7.712324,-14.959577,21.751068,,,,,,,
1504197106.190915,-2.612131,0.921440,-1.285921,-0.179350,0.277482,0.001799,-0.305402,-0.796473,0.521881,0.116788,0.014186,-0.333298,-7.712324,-14.959577,21.751068,,,,,,,
1504197106.200897,-2.605233,0.923850,-1.286210,-0.220692,0.757488,-0.138949,-0.308013,-0.797928,0.518111,0.122664,0.079651,-0.154066,-7.711912,-15.034879,21.901642,,,,,,,
1504197106.210907,-2.598291,0.926813,-1.284995,-0.211599,0.766040,-0.237150,-0.310378,-0.799710,0.513934,0.113464,0.133542,-0.030277,-7.711912,-15.034879,21.901642,,,,,,,
1504197106.220917,-2.594347,0.929969,-1.282512,-0.183313,0.522925,-0.308188,-0.311088,-0.801601,0.510548,0.111534,0.144466,0.030010,-7.787321,-15.184171,21.377563,,,,,,,
1504197106.230926,-2.594263,0.932889,-1.278527,-0.102890,0.268712,-0.368442,-0.309912,-0.803344,0.508521,0.115484,0.147826,0.016396,-7.787321,-15.184171,21.377563,,,,,,,
1504197106.240936,-2.597083,0.935394,-1.273437,-0.047660,0.089261,-0.391513,-0.307433,-0.804833,0.507670,0.109420,0.151254,0.025488,-8.086912,-15.260816,21.527374,,,,,,,
1504197106.250946,-2.600876,0.937704,-1.268268,-0.039676,0.031634,-0.373251,-0.304547,-0.806202,0.507237,0.080579,0.148334,0.028651,-8.086912,-15.260816,21.527374,,,,,,,
1504197106.260956,-2.603959,0.939681,-1.263449,-0.012603,0.104899,-0.335975,-0.302165,-0.807370,0.506804,0.015895,0.135342,-0.019026,-8.012251,-15.260022,21.302551,,,,,,,
1504197106.270965,-2.606343,0.941107,-1.258693,0.027096,0.149299,-0.309299,-0.300369,-0.808210,0.506532,-0.046479,0.125135,-0.037675,-8.012251,-15.260022,21.302551,,,,,,,
1504197106.280975,-2.608934,0.942476,-1.254148,0.013722,0.088652,-0.292137,-0.298493,-0.809016,0.506355,-0.048309,0.103114,0.005029,-8.086866,-15.410367,21.303497,,,,,,,
1504197106.290985,-2.611779,0.943681,-1.250235,0.012910,0.015086,-0.247178,-0.296558,-0.809723,0.506361,-0.016384,0.086442,-0.004514,-8.086866,-15.410367,21.303497,,,,,,,
1504197106.300995,-2.614545,0.944732,-1.247199,-0.004917,-0.045563,-0.192664,-0.294728,-0.810340,0.506443,-0.006282,0.073325,-0.034901,-7.936872,-15.409696,21.303864,,,,,,,
1504197106.311004,-2.617001,0.945734,-1.245198,-0.037569,-0.092237,-0.138201,-0.293077,-0.810927,0.506462,-0.014281,0.066618,-0.021355,-7.936872,-15.409696,21.303864,,,,,,,
1504197106.321014,-2.618776,0.946921,-1.244197,-0.084709,-0.094017,-0.101988,-0.291696,-0.811621,0.506147,-0.012976,0.068792,-0.019560,-7.711866,-15.408673,21.304413,,,,,,,
1504197106.331024,-2.619761,0.948112,-1.243912,-0.096446,-0.069453,-0.062557,-0.290716,-0.812316,0.505596,-0.009592,0.069594,-0.016079,-7.711866,-15.408673,21.304413,,,,,,,
1504197106.341034,-2.620011,0.949179,-1.244348,-0.110458,-0.061920,-0.022034,-0.290158,-0.812938,0.504917,-0.015277,0.062281,0.002102,-7.711729,-15.334119,21.528870,,,,,,,
1504197106.351043,-2.619881,0.950302,-1.245550,-0.137561,-0.093702,0.013200,-0.289768,-0.813591,0.504087,-0.022167,0.057594,0.019610,-7.711729,-15.334119,21.528870,,,,,,,
1504197106.361053,-2.619646,0.951407,-1.247586,-0.162870,-0.160675,0.060240,-0.289438,-0.814233,0.503239,-0.006384,0.071069,0.022945,-7.560743,-15.633756,21.681519,,,,,,,
1504197106.371063,-2.619212,0.952960,-1.250688,-0.247768,-0.224997,0.079419,-0.289025,-0.815134,0.502017,0.004036,0.082483,0.020551,-7.560743,-15.633756,21.681519,,,,,,,
1504197106.381073,-2.618498,0.955081,-1.254203,-0.291306,-0.206511,0.067570,-0.288519,-0.816360,0.500312,0.009467,0.088028,0.001946,-7.711378,-15.558835,21.380554,,,,,,,
1504197106.391083,-2.617271,0.957404,-1.257711,-0.307846,-0.148818,0.053563,-0.288183,-0.817700,0.498314,0.023015,0.063992,-0.032265,-7.711378,-15.558835,21.380554,,,,,,,
1504197106.401092,-2.615460,0.960176,-1.261023,-0.343299,-0.068568,0.017068,-0.287945,-0.819293,0.495830,0.029721,0.040576,-0.004955,-7.560637,-15.858151,21.383179,,,,,,,
1504197106.411102,-2.612702,0.963247,-1.264233,-0.358344,0.041330,0.000838,-0.288041,-0.821050,0.492859,0.031098,0.033544,0.005874,-7.560637,-15.858151,21.383179,,,,,,,
1504197106.421112,-2.609474,0.966221,-1.267094,-0.334400,0.092295,-0.012020,-0.288390,-0.822744,0.489820,0.021651,0.027379,0.023363,-7.560926,-15.783002,21.307587,,,,,,,
1504197106.431122,-2.611495,0.966677,-1.265961,-0.377493,0.017025,-0.049316,-0.287210,-0.823003,0.490078,0.011545,0.016561,0.048297,-7.560926,-15.783002,21.307587,,,,,,,
1504197106.441131,-2.609678,0.970814,-1.268529,-0.443872,-0.038859,-0.093096,-0.286371,-0.825345,0.486618,0.022653,-0.003176,0.030121,-7.485060,-16.307079,21.011749,,,,,,,
1504197106.451141,-2.608049,0.975375,-1.270878,-0.460675,-0.025899,-0.126237,-0.285245,-0.827912,0.482904,0.035093,-0.012389,-0.030100,-7.485060,-16.307079,21.011749,,,,,,,
1504197106.461151,-2.606309,0.980094,-1.272947,-0.465604,0.011460,-0.147660,-0.284089,-0.830550,0.479041,0.026048,-0.022829,-0.038169,-7.335966,-15.856702,21.158722,,,,,,,
1504197106.471161,-2.603286,0.986719,-1.275532,-0.491619,0.073511,-0.180910,-0.282708,-0.834221,0.473446,-0.000678,-0.015769,-0.011898,-7.335966,-15.856702,21.158722,,,,,,,
1504197106.481170,-2.600753,0.992046,-1.277075,-0.497380,0.139649,-0.203452,-0.281615,-0.837147,0.468912,-0.007570,0.007298,-0.001138,-7.784391,-16.533566,21.087677,,,,,,,
1504197106.491180,-2.598171,0.997150,-1.278471,-0.467560,0.136201,-0.198057,-0.280611,-0.839928,0.464520,-0.005643,0.024346,0.017353,-7.784391,-16.533566,21.087677,,,,,,,
1504197106.501190,-2.595890,1.002003,-1.279970,-0.454272,0.075332,-0.178714,-0.279552,-0.842552,0.460388,-0.010731,0.053153,0.069854,-7.634718,-16.532452,20.863068,,,,,,,
1504197106.511200,-2.602150,1.001202,-1.275853,-0.434397,-0.200661,-0.325471,-0.277011,-0.842120,0.462708,-0.010938,0.050250,0.091170,-7.634718,-16.532452,20.863068,,,,,,,
1504197106.521209,-2.606735,1.005700,-1.274254,-0.314191,-0.348754,-0.276969,-0.272953,-0.844537,0.460711,0.024189,-0.119086,0.000364,-7.483442,-17.131481,20.717926,,,,,,,
1504197106.531219,-2.611663,1.008882,-1.272557,-0.196893,-0.331647,-0.236235,-0.269320,-0.846236,0.459729,0.077257,-0.277009,-0.081906,-7.483442,-17.131481,20.717926,,,,,,,
1504197106.541229,-2.615976,1.010750,-1.270298,-0.073431,-0.202716,-0.182878,-0.266541,-0.847231,0.459517,-0.081085,-0.232725,0.010026,-7.259016,-16.905468,20.716766,,,,,,,
1504197106.551208,-2.618655,1.011807,-1.268207,-0.028791,-0.063536,-0.139282,-0.264861,-0.847792,0.459454,-0.032624,-0.161623,0.081134,-7.259016,-16.905468,20.716766,,,,,,,
1504197106.561218,-2.620447,1.012494,-1.266662,-0.017212,-0.055153,-0.094446,-0.263747,-0.848156,0.459423,-0.034196,-0.096211,0.097081,-7.033751,-17.054302,20.643463,,,,,,,
1504197106.571228,-2.622629,1.013176,-1.265600,-0.036218,-0.155177,-0.080427,-0.262457,-0.848517,0.459495,-0.030985,-0.047312,0.023919,-7.033751,-17.054302,20.643463,,,,,,,
1504197106.581238,-2.625430,1.014183,-1.264969,-0.084925,-0.240027,-0.077159,-0.260748,-0.849049,0.459485,0.001394,-0.027507,-0.044797,-7.033155,-17.204601,20.794586,,,,,,,
1504197106.591247,-2.627713,1.015805,-1.265235,-0.173632,-0.251031,-0.064485,-0.259020,-0.849905,0.458879,0.031268,0.008948,-0.057374,-7.033155,-17.204601,20.794586,,,,,,,
1504197106.601257,-2.629307,1.018643,-1.266724,-0.325518,-0.307308,-0.078525,-0.257105,-0.851397,0.457187,0.030970,0.061053,-0.012439,-6.657804,-17.427624,20.647217,,,,,,,
1504197106.611267,-2.630915,1.022794,-1.268599,-0.429869,-0.313853,-0.130997,-0.254640,-0.853567,0.454512,0.044786,0.103109,0.033250,-6.657804,-17.427624,20.647217,,,,,,,
1504197106.621277,-2.631854,1.027727,-1.270440,-0.490903,-0.229132,-0.165409,-0.252156,-0.856126,0.451071,0.083561,0.088365,0.026438,-6.507429,-17.576946,20.648712,,,,,,,
1504197106.631286,-2.631399,1.033089,-1.271909,-0.505130,-0.032901,-0.207408,-0.250116,-0.858885,0.446943,0.071984,0.048994,0.114168,-6.507429,-17.576946,20.648712,,,,,,,
1504197106.641296,-2.630056,1.038525,-1.272324,-0.475788,0.134212,-0.261022,-0.248426,-0.861657,0.442529,-0.009737,0.012429,0.169485,-6.433378,-17.425869,20.272766,,,,,,,
1504197106.651306,-2.628589,1.044241,-1.271817,-0.494188,0.201552,-0.314543,-0.246654,-0.864543,0.437866,-0.045064,-0.054723,0.150985,-6.433378,-17.425869,20.272766,,,,,,,
1504197106.661316,-2.627201,1.050507,-1.270577,-0.522260,0.256191,-0.374462,-0.244591,-0.867676,0.432798,-0.030403,-0.120743,0.061907,-6.432249,-17.875866,20.276154,,,,,,,
1504197106.671325,-2.625608,1.057258,-1.268973,-0.561211,0.301301,-0.407699,-0.242385,-0.871012,0.427304,-0.034135,-0.099356,-0.007519,-6.432249,-17.875866,20.276154,,,,,,,
1504197106.681335,-2.623681,1.064562,-1.267472,-0.608875,0.331553,-0.429183,-0.240052,-0.874577,0.421297,-0.032104,-0.003582,0.053786,-6.506529,-18.250896,20.128784,,,,,,,
1504197106.691345,-2.620858,1.072380,-1.266410,-0.666032,0.387437,-0.431515,-0.237831,-0.878340,0.414674,-0.033440,0.090010,0.093352,-6.506529,-18.250896,20.128784,,,,,,,
1504197106.701355,-2.616964,1.080437,-1.266129,-0.694757,0.414286,-0.404927,-0.235891,-0.882164,0.407606,-0.020594,0.135780,0.082659,-6.431196,-18.475262,19.980591,,,,,,,
1504197106.711365,-2.612948,1.088411,-1.266922,-0.708739,0.298199,-0.354579,-0.233971,-0.885891,0.400569,-0.016273,0.145580,0.022726,-6.431196,-18.475262,19.980591,,,,,,,
1504197106.721374,-2.610014,1.095864,-1.268952,-0.684529,0.040041,-0.274027,-0.231792,-0.889324,0.394178,-0.016895,0.136699,-0.039121,-6.430098,-18.999966,19.834564,,,,,,,
1504197106.731384,-2.608743,1.103000,-1.272411,-0.699957,-0.252931,-0.216964,-0.229063,-0.892564,0.388407,-0.002031,0.122575,-0.117426,-6.430098,-18.999966,19.834564,,,,,,,
1504197106.741394,-2.608424,1.110411,-1.276758,-0.750051,-0.371879,-0.204033,-0.225819,-0.895881,0.382626,0.042088,0.081474,-0.163830,-6.579802,-19.300045,19.536438,,,,,,,
1504197106.751404,-2.607293,1.118127,-1.281859,-0.787001,-0.319366,-0.198852,-0.222724,-0.899283,0.376409,0.034980,0.057456,-0.129370,-6.579802,-19.300045,19.536438,,,,,,,
1504197106.761413,-2.604907,1.125993,-1.286989,-0.783756,-0.190438,-0.215085,-0.219998,-0.902695,0.369787,0.022031,0.065186,-0.055105,-6.354460,-19.523739,19.388702,,,,,,,
1504197106.771423,-2.601450,1.133664,-1.291771,-0.752845,-0.062817,-0.218459,-0.217708,-0.905969,0.363074,0.024287,0.048410,-0.020972,-6.354460,-19.523739,19.388702,,,,,,,
1504197106.781433,-2.598197,1.140969,-1.296316,-0.718095,-0.114262,-0.208701,-0.215460,-0.909038,0.356690,0.032126,0.023448,-0.013703,-5.978666,-19.971615,19.167999,,,,,,,
1504197106.791443,-2.596074,1.148143,-1.301713,-0.729751,-0.344380,-0.165619,-0.212828,-0.912004,0.350647,0.050612,0.007356,-0.018662,-5.978666,-19.971615,19.167999,,,,,,,
1504197106.801452,-2.595241,1.154855,-1.308745,-0.722910,-0.636500,-0.079700,-0.209934,-0.914736,0.345232,0.042805,0.000674,-0.082476,-5.752836,-20.569698,18.723053,,,,,,,
1504197106.811462,-2.595274,1.161603,-1.318661,-0.812702,-1.001356,0.011517,-0.206711,-0.917442,0.339956,0.046784,0.013817,-0.157294,-5.752836,-20.569698,18.723053,,,,,,,
1504197106.821472,-2.594021,1.167508,-1.328634,-0.666806,-0.752169,0.038015,-0.204313,-0.919775,0.335066,0.071516,0.038290,-0.198714,-5.452726,-20.568508,18.798798,,,,,,,
1504197106.831482,-2.590123,1.171883,-1.337829,-0.518611,-0.333596,0.088769,-0.203507,-0.921483,0.330837,0.115678,0.130590,-0.159862,-5.452726,-20.568508,18.798798,,,,,,,
1504197106.841491,-2.584109,1.175347,-1.346085,-0.458400,-0.142284,0.088536,-0.203803,-0.922823,0.326896,0.144477,0.209033,0.142006,-5.226912,-21.166592,18.353821,,,,,,,
1504197106.851501,-2.572776,1.178376,-1.357997,-0.531056,0.098939,0.282252,-0.205988,-0.923986,0.322209,0.015497,0.216497,0.216656,-5.226912,-21.166592,18.353821,,,,,,,
1504197106.861511,-2.556646,1.182468,-1.374229,-0.729608,0.088848,0.286196,-0.209069,-0.925543,0.315689,-0.031471,0.361319,0.169266,-5.226484,-21.241894,18.504395,,,,,,,
1504197106.871521,-2.539818,1.186883,-1.393250,-0.780654,-0.102630,0.373972,-0.212036,-0.927206,0.308755,-0.017929,0.527258,0.169043,-5.226484,-21.241894,18.504395,,,,,,,
1504197106.881531,-2.519007,1.191536,-1.417318,-0.924793,-0.175093,0.492331,-0.215897,-0.928939,0.300768,0.136475,0.392440,0.053374,-5.526823,-21.467052,17.905334,,,,,,,
1504197106.891540,-2.490171,1.198266,-1.447411,-1.312463,0.163790,0.467579,-0.220684,-0.931409,0.289440,0.135021,0.520063,0.161045,-5.526823,-21.467052,17.905334,,,,,,,
1504197106.901550,-2.451329,1.208815,-1.484123,-1.744991,0.572402,0.349762,-0.225488,-0.935197,0.273060,0.056924,0.533494,0.223674,-5.750914,-21.917767,17.758148,,,,,,,
1504197106.911560,-2.404018,1.221829,-1.525475,-1.940954,0.921561,0.196169,-0.229944,-0.939726,0.253061,-0.003134,0.397627,0.050436,-5.751265,-22.365826,16.786499,,,,,,,
1504197106.921570,-2.355778,1.235432,-1.566406,-1.918266,0.970591,0.003989,-0.232815,-0.944290,0.232621,0.019299,0.149765,-0.056505,-5.751265,-22.365826,16.786499,,,,,,,
1504197106.931579,-2.312344,1.248491,-1.602860,-1.687679,0.880424,-0.166237,-0.233582,-0.948508,0.213945,0.068360,-0.155496,-0.050401,-6.426329,-22.966763,15.739319,,,,,,,
1504197106.941589,-2.280833,1.259250,-1.628344,-1.154364,0.631105,-0.320714,-0.232454,-0.951861,0.199815,0.078218,-0.311002,-0.068788,-6.426329,-22.966763,15.739319,,,,,,,
1504197106.951568,-2.271090,1.266472,-1.636036,-0.497717,0.104706,-0.404040,-0.229127,-0.954050,0.193106,0.057130,-0.481085,-0.156042,-6.351515,-23.339931,14.992310,,,,,,,
1504197106.961578,-2.281372,1.269861,-1.630806,0.014707,-0.754191,-0.340795,-0.224677,-0.955060,0.193341,0.035041,-0.702136,-0.275724,-6.351515,-23.339931,14.992310,,,,,,,
1504197106.971588,-2.306249,1.269857,-1.617422,0.388568,-1.302965,-0.236709,-0.219802,-0.955058,0.198873,-0.044221,-0.742375,-0.400152,-6.051146,-23.488583,14.994171,,,,,,,
1504197106.981598,-2.340235,1.267478,-1.597694,0.641434,-1.566125,-0.230470,-0.214549,-0.954351,0.207807,-0.102880,-0.650615,-0.329939,-6.051146,-23.488583,14.994171,,,,,,,
1504197106.991607,-2.381082,1.265313,-1.576579,0.552236,-2.234497,-0.316973,-0.207307,-0.953702,0.217892,-0.054167,-0.420337,-0.142696,-5.449751,-23.637234,15.671814,,,,,,,
1504197107.001617,-2.423180,1.263558,-1.557215,0.540439,-2.362294,-0.295420,-0.199055,-0.953172,0.227683,0.080448,-0.185759,-0.182822,-5.449751,-23.637234,15.671814,,,,,,,
1504197107.011627,-2.460500,1.260786,-1.539498,0.575947,-1.736105,-0.207868,-0.192084,-0.952330,0.237004,0.244437,-0.100663,-0.324864,-4.325132,-23.257915,16.046783,,,,,,,
1504197107.021637,-2.487575,1.256420,-1.521432,0.701871,-0.766434,-0.157057,-0.188126,-0.950989,0.245414,0.175247,-0.129852,0.039254,-4.325132,-23.257915,16.046783,,,,,,,
1504197107.031647,-2.504316,1.253512,-1.506016,0.416638,-0.056450,-0.231387,-0.185636,-0.950086,0.250751,-0.061908,-0.123446,0.503507,-3.725218,-22.956127,16.496002,,,,,,,
1504197107.041656,-2.511100,1.254564,-1.497599,-0.055238,0.149941,-0.270995,-0.183341,-0.950414,0.251197,-0.215265,-0.102275,0.553399,-3.725218,-22.956127,16.496002,,,,,,,
1504197107.051666,-2.506999,1.258911,-1.500264,-0.502550,0.164191,-0.163971,-0.181918,-0.951757,0.247113,-0.152066,-0.049083,0.295764,-4.100065,-23.107510,16.346191,,,,,,,
1504197107.061676,-2.493416,1.265434,-1.512434,-0.800198,0.216644,-0.085591,-0.181506,-0.953738,0.239665,-0.040418,-0.074842,0.132497,-4.100065,-23.107510,16.346191,,,,,,,
1504197107.071686,-2.474320,1.272843,-1.529333,-0.904172,0.319748,-0.037920,-0.181671,-0.955939,0.230599,0.030197,-0.150674,0.090400,-4.099806,-23.257366,16.272308,,,,,,,
1504197107.081695,-2.451287,1.279592,-1.550216,-0.909400,0.269591,0.074237,-0.182821,-0.957899,0.221373,0.018545,-0.139269,0.124635,-4.099806,-23.257366,16.272308,,,,,,,
1504197107.091705,-2.433220,1.286339,-1.568839,-0.831183,-0.051639,-0.078767,-0.182582,-0.959814,0.213122,0.021785,-0.075281,0.110349,-3.800138,-23.479824,15.674774,,,,,,,
1504197107.101715,-2.423587,1.292487,-1.579829,-0.605617,-0.074678,-0.204289,-0.180741,-0.961521,0.206905,0.024293,0.019291,-0.009044,-3.800138,-23.479824,15.674774,,,,,,,
1504197107.111725,-2.420187,1.297701,-1.583216,-0.405730,0.050573,-0.291691,-0.178130,-0.962941,0.202522,0.028289,0.084431,-0.099144,-3.650023,-23.927807,15.003448,,,,,,,
1504197107.121734,-2.419574,1.302599,-1.582369,-0.346952,0.158842,-0.351554,-0.175135,-0.964250,0.198871,-0.000433,-0.029677,-0.038806,-3.650023,-23.927807,15.003448,,,,,,,
1504197107.131744,-2.419114,1.308056,-1.581271,-0.412983,0.147708,-0.393278,-0.171744,-0.965682,0.194840,-0.007791,-0.011369,-0.019578,-3.499800,-24.151684,14.780518,,,,,,,
1504197107.141754,-2.415411,1.315093,-1.582925,-0.599858,0.230284,-0.442848,-0.167948,-0.967486,0.189117,0.016215,0.072588,0.006196,-3.499800,-24.151684,14.780518,,,,,,,
1504197107.151764,-2.406697,1.323115,-1.589494,-0.735586,0.232416,-0.393986,-0.164380,-0.969483,0.181882,0.028653,0.102723,0.045688,-3.499418,-24.525936,14.408325,,,,,,,
1504197107.161773,-2.393637,1.330741,-1.600984,-0.736591,0.177960,-0.279680,-0.161708,-0.971325,0.174295,0.023677,0.021541,0.062445,-3.499418,-24.525936,14.408325,,,,,,,
1504197107.171783,-2.380469,1.336586,-1.613252,-0.577747,0.100873,-0.162922,-0.160070,-0.972698,0.168037,0.009512,-0.073338,0.000573,-3.499205,-24.750484,14.185028,,,,,,,
1504197107.181793,-2.370800,1.340155,-1.623059,-0.354076,-0.016161,-0.058790,-0.159268,-0.973520,0.163990,-0.007343,-0.114691,-0.043140,-3.499205,-24.750484,14.185028,,,,,,,
1504197107.191803,-2.365253,1.341224,-1.629852,-0.136943,-0.134235,0.070950,-0.159446,-0.973764,0.162361,-0.027733,-0.089072,-0.044441,-3.349195,-24.749813,14.185425,,,,,,,
1504197107.201788,-2.360388,1.340457,-1.636985,-0.042363,-0.236377,0.197248,-0.160760,-0.973589,0.162114,-0.018104,-0.016706,-0.003590,-3.349195,-24.749813,14.185425,,,,,,,
1504197107.211797,-2.354265,1.339122,-1.646286,-0.062438,-0.306605,0.259246,-0.162670,-0.973283,0.162043,0.011791,0.067903,0.054876,-3.499418,-24.750179,14.035004,,,,,,,
1504197107.221807,-2.351572,1.337463,-1.653423,0.023911,-0.475637,0.216998,-0.164253,-0.972901,0.162741,0.049598,0.099915,0.061182,-3.499418,-24.750179,14.035004,,,,,,,
1504197107.231817,-2.358642,1.335852,-1.652212,0.172109,-0.599218,0.040284,-0.164204,-0.972527,0.165009,0.063328,0.143563,0.007171,-3.349318,-24.749660,14.110413,,,,,,,
1504197107.241827,-2.380777,1.335504,-1.634436,0.355856,-0.438312,-0.390912,-0.160744,-0.972446,0.168848,0.073280,0.322620,-0.061151,-3.349318,-24.749660,14.110413,,,,,,,
1504197107.251836,-2.416300,1.337547,-1.599897,0.392680,-0.112081,-0.834395,-0.153328,-0.972920,0.172963,0.059807,0.378545,-0.010640,-3.123854,-24.973507,14.037628,,,,,,,
1504197107.261846,-2.461626,1.341854,-1.553143,0.359268,0.034534,-1.174146,-0.142697,-0.973907,0.176473,-0.005130,0.174987,0.014872,-3.123854,-24.973507,14.037628,,,,,,,
1504197107.271856,-2.519211,1.346923,-1.494447,0.411812,-0.075417,-1.403352,-0.129424,-0.975045,0.180380,-0.028519,0.069680,-0.024664,-2.299238,-24.595531,14.411865,,,,,,,
1504197107.281866,-2.587906,1.351506,-1.425809,0.473352,-0.202590,-1.538581,-0.114387,-0.976052,0.185035,-0.004861,0.156655,-0.050117,-2.299238,-24.595531,14.411865,,,,,,,
1504197107.291875,-2.663385,1.354843,-1.350719,0.513004,-0.203943,-1.575869,-0.098609,-0.976773,0.190241,-0.001855,0.208370,-0.056254,-1.549177,-24.442760,14.712585,,,,,,,
1504197107.301885,-2.738994,1.356898,-1.274814,0.496371,-0.123928,-1.535478,-0.083170,-0.977211,0.195299,-0.014593,0.189918,-0.043062,-1.549177,-24.442760,14.712585,,,,,,,
1504197107.311895,-2.810314,1.358577,-1.202739,0.349060,-0.086562,-1.461081,-0.068508,-0.977566,0.199177,-0.043659,0.100582,-0.008076,-0.874220,-24.290173,14.938141,,,,,,,
1504197107.321905,-2.876641,1.360470,-1.135873,0.195948,-0.100309,-1.374863,-0.054672,-0.977963,0.201494,-0.046723,0.024762,0.013243,-0.874220,-24.290173,14.938141,,,,,,,
1504197107.331914,-2.942128,1.361815,-1.069794,0.195115,-0.070466,-1.373849,-0.041108,-0.978243,0.203350,-0.018295,-0.004194,0.026692,0.100054,-23.911098,15.087708,,,,,,,
1504197107.341924,-3.015721,1.360195,-0.994589,0.300025,0.068320,-1.434759,-0.026244,-0.977905,0.207394,0.011428,0.005844,0.030155,0.100054,-23.911098,15.087708,,,,,,,
1504197107.351903,-3.085712,1.358481,-0.921134,0.355582,0.125548,-1.572458,-0.011769,-0.977546,0.210395,0.024083,0.021384,0.018731,0.850359,-23.982876,15.165100,,,,,,,
1504197107.361913,3.125477,1.355366,-0.844210,0.346409,0.426157,-1.605026,0.003445,-0.976884,0.213740,0.010013,0.006639,0.026082,0.850359,-23.982876,15.165100,,,,,,,
1504197107.371923,3.066658,1.352547,-0.777189,0.157961,0.739713,-1.396695,0.016210,-0.976278,0.215913,-0.016378,-0.043879,-0.003343,1.375383,-23.905804,15.315887,,,,,,,
1504197107.381933,3.017412,1.351073,-0.718969,-0.030528,0.752818,-1.233732,0.026997,-0.975958,0.216282,-0.146137,-0.178782,0.123364,1.375383,-23.905804,15.315887,,,,,,,
1504197107.391943,2.972426,1.351154,-0.666093,-0.228352,0.646684,-1.101530,0.036682,-0.975975,0.214770,-0.159790,-0.277381,0.102612,1.749788,-23.753826,15.165649,,,,,,,
1504197107.401952,2.932746,1.353729,-0.618996,-0.519646,0.638215,-0.897078,0.044652,-0.976533,0.210687,-0.104192,-0.295150,0.031592,1.749788,-23.753826,15.165649,,,,,,,
1504197107.411962,2.898062,1.359572,-0.576883,-0.850291,0.642861,-0.696988,0.050555,-0.977775,0.203471,-0.077868,-0.306100,0.028722,2.275087,-24.050869,14.869202,,,,,,,
1504197107.421972,2.866760,1.367279,-0.538859,-0.979704,0.581936,-0.517781,0.054851,-0.979362,0.194530,-0.047649,-0.303963,0.047215,2.275087,-24.050869,14.869202,,,,,,,
1504197107.431982,2.835927,1.376595,-0.501825,-1.130006,0.531914,-0.411213,0.058074,-0.981202,0.184038,-0.028502,-0.288344,0.009856,2.200579,-24.649868,14.198547,,,,,,,
1504197107.441991,2.806242,1.385554,-0.467536,-1.011591,0.335813,-0.294315,0.060615,-0.982892,0.173924,-0.034141,-0.249545,-0.014745,2.200579,-24.649868,14.198547,,,,,,,
1504197107.452001,2.790059,1.391753,-0.449991,-0.559786,0.036632,-0.015480,0.061323,-0.984014,0.167198,-0.000913,-0.172129,-0.034385,2.125765,-24.725201,14.198914,,,,,,,
1504197107.462011,2.795156,1.393823,-0.456880,-0.010578,-0.233499,0.247462,0.059778,-0.984381,0.165592,0.017844,-0.115183,-0.070667,2.125765,-24.725201,14.198914,,,,,,,
1504197107.472021,2.820160,1.391832,-0.486220,0.472099,-0.433791,0.484547,0.056238,-0.984029,0.168894,0.021948,-0.049678,-0.007349,1.900988,-24.950771,13.975037,,,,,,,
1504197107.482030,2.859055,1.387124,-0.531335,0.745240,-0.580096,0.677411,0.050919,-0.983180,0.175400,0.051620,-0.026006,0.052490,1.900988,-24.950771,13.975037,,,,,,,
1504197107.492040,2.902765,1.381086,-0.582330,0.849799,-0.650327,0.779119,0.044610,-0.982059,0.183222,0.075965,-0.092404,0.023870,2.050158,-24.350979,14.420898,,,,,,,
1504197107.502050,2.945363,1.374566,-0.632142,0.830857,-0.612883,0.786492,0.038014,-0.980808,0.191232,0.074046,-0.120006,-0.030267,2.050158,-24.350979,14.420898,,,,,,,
1504197107.512060,2.982766,1.368636,-0.675585,0.687135,-0.479499,0.723031,0.031756,-0.979635,0.198259,0.042997,-0.121256,-0.053575,1.751101,-24.503078,14.796265,,,,,,,
1504197107.522070,3.013051,1.365432,-0.709728,0.256506,-0.235003,0.603372,0.026140,-0.978987,0.202241,0.014341,-0.075579,-0.042268,1.751101,-24.503078,14.796265,,,,,,,
1504197107.532079,3.034539,1.366365,-0.732609,-0.123055,-0.045212,0.425191,0.021691,-0.979177,0.201849,0.003913,0.014211,-0.000661,1.300432,-24.279949,14.718506,,,,,,,
1504197107.542089,3.046678,1.368737,-0.743566,-0.231962,0.196759,0.186545,0.019020,-0.979655,0.199784,0.015648,0.124797,0.058501,1.300432,-24.279949,14.718506,,,,,,,
1504197107.552099,3.051242,1.371335,-0.745345,-0.251681,0.296194,0.020888,0.017878,-0.980173,0.197333,0.020010,0.186274,0.064828,1.450655,-24.279583,14.868866,,,,,,,
1504197107.562109,3.050325,1.373047,-0.741686,-0.143750,0.257044,-0.075990,0.017906,-0.980511,0.195646,0.005242,0.173138,0.052752,1.450655,-24.279583,14.868866,,,,,,,
1504197107.572118,3.046579,1.373515,-0.735309,-0.032531,0.254056,-0.132364,0.018595,-0.980603,0.195120,0.010076,0.155087,0.015924,1.225695,-24.430141,14.644409,,,,,,,
1504197107.582128,3.041626,1.373169,-0.727468,0.035021,0.278038,-0.161109,0.019595,-0.980535,0.195363,0.009687,0.119955,-0.010442,1.225695,-24.430141,14.644409,,,,,,,
1504197107.592138,3.036962,1.372023,-0.720031,0.124416,0.254915,-0.152374,0.020623,-0.980310,0.196387,0.013404,0.075448,0.005716,1.300875,-24.504803,14.645172,,,,,,,
1504197107.602148,3.034206,1.369972,-0.714845,0.213599,0.225367,-0.111606,0.021380,-0.979903,0.198328,0.030363,0.029326,-0.001505,1.300875,-24.504803,14.645172,,,,,,,
1504197107.612157,3.034080,1.367440,-0.712809,0.248084,0.170678,-0.053810,0.021671,-0.979394,0.200792,0.035793,-0.004782,-0.011339,1.526217,-24.504238,14.870728,,,,,,,
1504197107.622167,3.021969,1.366226,-0.699675,0.181273,0.123203,0.000570,0.024243,-0.979148,0.201695,0.029712,-0.023446,-0.008870,1.526217,-24.504238,14.870728,,,,,,,
1504197107.632177,3.024495,1.365293,-0.701354,0.065552,0.078308,0.027133,0.023840,-0.978958,0.202663,0.029840,-0.023636,-0.010005,1.375872,-24.280209,15.018677,,,,,,,
1504197107.642187,3.026457,1.365307,-0.702415,-0.014248,0.099223,0.016284,0.023441,-0.978961,0.202696,0.025509,-0.011716,0.001681,1.375872,-24.280209,15.018677,,,,,,,
1504197107.652196,3.027168,1.365634,-0.701897,-0.035175,0.131395,-0.014764,0.023260,-0.979028,0.202394,0.021906,0.006082,0.006407,1.000658,-24.281597,14.867737,,,,,,,
1504197107.662206,3.018573,1.364543,-0.691967,0.000307,0.151361,-0.037167,0.025130,-0.978805,0.203246,0.019960,0.017776,0.007402,1.000658,-24.281597,14.867737,,,,,,,
1504197107.672216,3.018343,1.364122,-0.690133,0.047318,0.156308,-0.042431,0.025228,-0.978719,0.203650,0.018290,0.018849,-0.001715,0.699862,-24.057644,14.715332,,,,,,,
1504197107.682226,3.018274,1.363450,-0.688564,0.064270,0.143378,-0.039177,0.025323,-0.978581,0.204301,0.014884,0.014454,-0.002519,0.699862,-24.057644,14.715332,,,,,,,
1504197107.692236,3.018184,1.362894,-0.687086,0.043912,0.133953,-0.037061,0.025408,-0.978466,0.204838,0.014082,0.006771,0.001140,0.850847,-24.357281,14.867950,,,,,,,
1504197107.702245,3.011687,1.362183,-0.679369,0.011893,0.129951,-0.041389,0.026828,-0.978319,0.205359,0.015484,-0.004011,0.004526,0.850847,-24.357281,14.867950,,,,,,,
1504197107.712255,3.010861,1.362247,-0.677231,-0.018011,0.124871,-0.043567,0.026990,-0.978332,0.205274,0.021915,-0.007279,0.006396,1.075533,-24.281109,14.792908,,,,,,,
1504197107.722265,3.009902,1.362509,-0.675015,-0.035151,0.117551,-0.041449,0.027153,-0.978386,0.204994,0.025978,-0.007179,0.010475,1.075533,-24.281109,14.792908,,,,,,,
1504197107.732275,3.009106,1.362822,-0.673076,-0.034204,0.107944,-0.032891,0.027276,-0.978451,0.204669,0.027519,-0.007602,0.011823,0.925432,-24.057384,15.090881,,,,,,,
1504197107.742284,2.999636,1.362189,-0.662808,-0.020508,0.092890,-0.022183,0.029300,-0.978320,0.205014,0.025876,-0.008328,0.009814,0.925432,-24.057384,15.090881,,,,,,,
1504197107.752264,2.991469,1.361403,-0.653980,-0.001466,0.077795,-0.013599,0.031089,-0.978157,0.205529,0.025216,-0.007652,0.010047,0.850008,-23.758175,15.313477,,,,,,,
1504197107.762273,2.984574,1.360359,-0.646512,0.014445,0.068061,-0.010366,0.032665,-0.977940,0.206318,0.023900,-0.002880,0.011059,0.850008,-23.758175,15.313477,,,,,,,
1504197107.772283,2.979095,1.359018,-0.640552,0.029287,0.055144,-0.011395,0.034007,-0.977659,0.207430,0.021215,0.002363,0.013380,1.000612,-24.132046,15.091644,,,,,,,
1504197107.782293,2.974145,1.357688,-0.635222,0.036706,0.043363,-0.019909,0.035250,-0.977378,0.208540,0.018934,0.008705,0.011064,1.000612,-24.132046,15.091644,,,,,,,
1504197107.792303,2.969799,1.356502,-0.630614,0.043036,0.031588,-0.024155,0.036354,-0.977127,0.209528,0.015892,0.013519,0.007010,0.850435,-24.057720,15.090698,,,,,,,
1504197107.802312,2.966086,1.355477,-0.626734,0.051501,0.018734,-0.030527,0.037306,-0.976908,0.210377,0.012224,0.014140,0.003566,0.850435,-24.057720,15.090698,,,,,,,
1504197107.812322,2.962835,1.354557,-0.623372,0.052541,0.011270,-0.036921,0.038150,-0.976711,0.211139,0.009213,0.013043,0.001630,0.775652,-24.058361,15.240540,,,,,,,
1504197107.822332,2.960469,1.353781,-0.620935,0.053549,0.003801,-0.036909,0.038786,-0.976544,0.211794,0.005159,0.007764,0.000777,0.775652,-24.058361,15.240540,,,,,,,
1504197107.832342,2.959258,1.353211,-0.619640,0.047151,0.004918,-0.035854,0.039143,-0.976422,0.212294,-0.000233,0.001385,-0.000334,0.851030,-24.432278,14.868500,,,,,,,
1504197107.842351,2.959009,1.352914,-0.619284,0.030073,0.006122,-0.032682,0.039249,-0.976357,0.212569,-0.004886,-0.005759,-0.000869,0.851030,-24.432278,14.868500,,,,,,,
1504197107.852361,2.959141,1.352876,-0.619323,0.016149,0.004099,-0.025228,0.039228,-0.976349,0.212611,-0.006192,-0.009613,-0.001765,1.000841,-24.356594,14.868317,,,,,,,
1504197107.862371,2.959914,1.352950,-0.620012,0.006491,0.003106,-0.015634,0.039050,-0.976365,0.212571,-0.008060,-0.011413,-0.000748,1.000841,-24.356594,14.868317,,,,,,,
1504197107.872381,2.960911,1.353127,-0.620930,0.003256,0.004191,-0.007099,0.038807,-0.976403,0.212439,-0.007817,-0.011359,-0.001929,1.075426,-24.280972,14.717926,,,,,,,
1504197107.882391,2.961827,1.353249,-0.621747,0.009685,0.008401,-0.006026,0.038591,-0.976430,0.212358,-0.006487,-0.008876,-0.002595,1.075426,-24.280972,14.717926,,,,,,,
1504197107.892400,2.962387,1.353231,-0.622139,0.018298,0.016858,-0.008159,0.038475,-0.976426,0.212396,-0.004158,-0.005447,-0.002603,1.076174,-24.356716,15.093506,,,,,,,
1504197107.902410,2.962716,1.353134,-0.622241,0.020496,0.022173,-0.012434,0.038422,-0.976405,0.212502,-0.003434,-0.000905,-0.002800,1.076174,-24.356716,15.093506,,,,,,,
1504197107.912420,2.962639,1.353021,-0.621926,0.024791,0.021080,-0.019895,0.038458,-0.976380,0.212608,-0.002768,0.001924,-0.004554,1.000475,-24.206600,14.867188,,,,,,,
1504197107.922430,2.962094,1.352945,-0.621125,0.018445,0.025400,-0.024184,0.038588,-0.976364,0.212660,-0.001615,0.001160,-0.004850,1.000475,-24.206600,14.867188,,,,,,,
1504197107.932439,2.961357,1.352870,-0.620116,0.022727,0.025368,-0.027378,0.038757,-0.976348,0.212703,-0.001266,-0.000306,-0.005580,1.150698,-24.206219,15.017548,,,,,,,
1504197107.942449,2.961022,1.352760,-0.619503,0.026976,0.023203,-0.027366,0.038848,-0.976324,0.212795,-0.003920,-0.002588,-0.004757,1.150698,-24.206219,15.017548,,,,,,,
1504197107.952459,2.961262,1.352469,-0.619425,0.038754,0.028435,-0.027353,0.038848,-0.976261,0.213085,-0.006514,-0.002972,-0.002193,0.849031,-23.682125,14.787872,,,,,,,
1504197107.962469,2.962067,1.352026,-0.619851,0.043068,0.034793,-0.026287,0.038753,-0.976165,0.213541,-0.009029,-0.003663,0.001165,0.849031,-23.682125,14.787872,,,,,,,
1504197107.972478,2.963275,1.351457,-0.620548,0.041049,0.047601,-0.028444,0.038594,-0.976041,0.214135,-0.010762,-0.002962,0.005607,0.775423,-24.058056,15.090515,,,,,,,
1504197107.982488,2.964254,1.350798,-0.620915,0.035813,0.058304,-0.030603,0.038498,-0.975898,0.214805,-0.008865,-0.002358,0.009774,0.775423,-24.058056,15.090515,,,,,,,
1504197107.992498,2.964678,1.350092,-0.620624,0.029512,0.067952,-0.034899,0.038528,-0.975744,0.215500,-0.005264,-0.001643,0.013184,1.150316,-24.056225,15.016418,,,,,,,
1504197108.002508,2.964500,1.349456,-0.619718,0.022050,0.069078,-0.033845,0.038676,-0.975604,0.216104,-0.000986,-0.001065,0.012763,1.150316,-24.056225,15.016418,,,,,,,
1504197108.012518,2.963984,1.348863,-0.618501,0.017722,0.065909,-0.026376,0.038889,-0.975474,0.216653,0.002706,-0.001012,0.012442,1.001070,-24.356899,15.018311,,,,,,,
1504197108.022527,2.963190,1.348249,-0.617090,0.017633,0.058443,-0.019960,0.039168,-0.975338,0.217211,0.007341,-0.003330,0.013929,1.001070,-24.356899,15.018311,,,,,,,
1504197108.032537,2.962125,1.347683,-0.615530,0.013261,0.047817,-0.015681,0.039497,-0.975213,0.217713,0.010460,-0.004325,0.013504,1.075533,-24.056866,15.166229,,,,,,,
1504197108.042547,2.960921,1.347185,-0.613896,0.013188,0.042481,-0.009271,0.039847,-0.975103,0.218143,0.012826,-0.003138,0.011883,1.075533,-24.056866,15.166229,,,,,,,
1504197108.052557,2.959763,1.346774,-0.612419,0.019610,0.030719,-0.002820,0.040172,-0.975012,0.218491,0.013859,-0.003397,0.006912,1.375429,-24.055355,15.091980,,,,,,,
1504197108.062566,2.958436,1.346287,-0.610968,0.025854,0.013611,0.001486,0.040548,-0.974903,0.218904,0.016260,-0.002147,0.006956,1.375429,-24.055355,15.091980,,,,,,,
1504197108.072576,2.957449,1.345720,-0.609974,0.026810,0.002940,0.006840,0.040866,-0.974777,0.219408,0.015043,-0.000626,0.009734,1.374941,-23.905209,15.015839,,,,,,,
1504197108.082586,2.956582,1.345156,-0.609185,0.021421,-0.003413,0.007906,0.041157,-0.974651,0.219912,0.014492,-0.002888,0.012159,1.374941,-23.905209,15.015839,,,,,,,
1504197108.092596,2.956001,1.344655,-0.608695,0.012862,-0.006540,0.007895,0.041375,-0.974539,0.220368,0.011695,-0.005121,0.014205,1.450884,-24.055630,15.392181,,,,,,,
1504197108.102605,2.956065,1.344258,-0.608816,0.004355,-0.003274,0.007873,0.041432,-0.974450,0.220751,0.005809,-0.006431,0.015119,1.450884,-24.055630,15.392181,,,,,,,
1504197108.112615,2.956805,1.343951,-0.609563,-0.002028,-0.000027,0.009992,0.041323,-0.974381,0.221076,-0.000430,-0.005417,0.015344,1.000429,-24.057049,15.091064,,,,,,,
1504197108.122625,2.958016,1.343700,-0.610759,-0.006293,0.000009,0.009986,0.041100,-0.974324,0.221366,-0.004479,-0.003474,0.015588,1.000429,-24.057049,15.091064,,,,,,,
1504197108.132635,2.959417,1.343523,-0.612137,-0.012697,0.000062,0.011045,0.040821,-0.974284,0.221593,-0.006871,-0.003453,0.015543,1.299669,-23.755703,15.089569,,,,,,,
1504197108.142644,2.960906,1.343457,-0.613645,-0.015926,-0.003108,0.012115,0.040503,-0.974270,0.221717,-0.008124,-0.004475,0.013070,1.299669,-23.755703,15.089569,,,,,,,
1504197108.152624,2.962413,1.343508,-0.615221,-0.020278,-0.010536,0.017460,0.040160,-0.974281,0.221729,-0.008635,-0.004418,0.010678,1.000658,-24.281597,14.867737,,,,,,,
1504197108.162633,2.964493,1.343555,-0.617356,-0.019196,-0.006285,0.021728,0.039691,-0.974292,0.221766,-0.011798,-0.003354,0.011647,1.000658,-24.281597,14.867737,,,,,,,
1504197108.172643,2.967095,1.343489,-0.619978,-0.010637,-0.001031,0.026007,0.039125,-0.974277,0.221933,-0.013917,-0.002713,0.014258,1.075319,-24.056561,15.016235,,,,,,,
1504197108.182653,2.970090,1.343275,-0.622891,-0.002019,0.009555,0.027075,0.038495,-0.974228,0.222254,-0.015149,-0.001342,0.016851,1.075319,-24.056561,15.016235,,,,,,,
1504197108.192663,2.973173,1.342941,-0.625764,0.003434,0.021238,0.022799,0.037864,-0.974153,0.222693,-0.014854,0.001588,0.018747,1.075609,-24.131710,15.091827,,,,,,,
1504197108.202668,2.976155,1.342620,-0.628372,0.004652,0.038282,0.020641,0.037252,-0.974081,0.223113,-0.013997,0.003667,0.016481,1.075609,-24.131710,15.091827,,,,,,,
1504197108.212677,2.978664,1.342392,-0.630434,0.002585,0.045760,0.019559,0.036728,-0.974029,0.223425,-0.010376,0.006271,0.010966,0.850618,-24.132717,15.091248,,,,,,,
1504197108.222687,2.980582,1.342240,-0.631915,0.001512,0.044704,0.019561,0.036323,-0.973994,0.223641,-0.005577,0.006984,0.006675,0.850618,-24.132717,15.091248,,,,,,,
1504197108.232697,2.981945,1.342186,-0.632936,-0.003928,0.034089,0.023840,0.036026,-0.973982,0.223742,0.000686,0.007277,0.003903,0.925615,-24.132381,15.091431,,,,,,,
1504197108.242707,2.982860,1.342206,-0.633662,-0.005141,0.019174,0.029200,0.035819,-0.973987,0.223756,0.005090,0.005039,0.001342,0.925615,-24.132381,15.091431,,,,,,,
1504197108.252717,2.983489,1.342294,-0.634278,-0.005282,0.004252,0.033494,0.035664,-0.974007,0.223694,0.008510,0.001717,-0.000611,0.850206,-24.057430,14.940704,,,,,,,
1504197108.262727,2.983909,1.342450,-0.634804,-0.004313,-0.008543,0.032448,0.035547,-0.974042,0.223558,0.008963,-0.003207,-0.003191,0.850206,-24.057430,14.940704,,,,,,,
1504197108.272737,2.984256,1.342698,-0.635304,-0.005377,-0.010662,0.028179,0.035431,-0.974098,0.223332,0.007416,-0.006767,-0.006596,1.150423,-24.056377,15.091431,,,,,,,
1504197108.282747,2.985053,1.342975,-0.636250,-0.007501,-0.010642,0.026040,0.035211,-0.974161,0.223094,0.001089,-0.008582,-0.006343,1.150423,-24.056377,15.091431,,,,,,,
1504197108.292755,2.986369,1.343298,-0.637627,-0.013806,-0.000995,0.021744,0.034869,-0.974234,0.222829,-0.005587,-0.009058,-0.004934,0.775316,-24.057903,15.015503,,,,,,,
1504197108.302765,2.988055,1.343622,-0.639239,-0.017970,0.008636,0.016385,0.034445,-0.974307,0.222576,-0.011251,-0.006971,-0.003002,0.775316,-24.057903,15.015503,,,,,,,
1504197108.312775,2.990120,1.343943,-0.641084,-0.017825,0.023561,0.011026,0.033938,-0.974379,0.222337,-0.016329,-0.004884,-0.001985,0.850313,-24.057568,15.015686,,,,,,,
1504197108.322785,2.992190,1.344272,-0.642831,-0.013477,0.030991,0.006755,0.033430,-0.974453,0.222091,-0.018080,-0.003849,-0.004546,0.850313,-24.057568,15.015686,,,,,,,
1504197108.332794,2.994498,1.344546,-0.644724,-0.008057,0.038413,0.001420,0.032878,-0.974514,0.221902,-0.021587,-0.001880,-0.004663,0.999834,-23.906750,14.939941,,,,,,,
1504197108.342804,2.996869,1.344730,-0.646607,0.002689,0.044726,-0.003904,0.032326,-0.974556,0.221802,-0.023934,0.000709,-0.006333,0.999834,-23.906750,14.939941,,,,,,,
1504197108.352814,2.999359,1.344857,-0.648524,0.013448,0.052106,-0.010297,0.031756,-0.974584,0.221760,-0.027301,0.001928,-0.009358,1.000765,-24.281750,14.942749,,,,,,,
1504197108.362824,3.001846,1.344895,-0.650362,0.023154,0.060561,-0.017760,0.031199,-0.974593,0.221801,-0.028956,0.002882,-0.010666,1.000765,-24.281750,14.942749,,,,,,,
1504197108.372834,3.004290,1.344917,-0.652046,0.024321,0.071213,-0.020971,0.030654,-0.974598,0.221856,-0.030288,0.002140,-0.012047,1.225924,-24.206188,15.167725,,,,,,,
1504197108.382843,3.006728,1.344982,-0.653589,0.022312,0.085089,-0.024195,0.030105,-0.974612,0.221867,-0.030501,-0.002195,-0.012577,1.225924,-24.206188,15.167725,,,,,,,
1504197108.392853,3.009092,1.345018,-0.654926,0.019218,0.097905,-0.025283,0.029575,-0.974620,0.221903,-0.028629,-0.004796,-0.009577,0.850084,-24.057278,14.865692,,,,,,,
1504197108.402864,3.011135,1.344956,-0.655831,0.016102,0.108589,-0.025302,0.029130,-0.974606,0.222022,-0.023637,-0.006885,-0.003364,0.850084,-24.057278,14.865692,,,,,,,
1504197108.412874,3.012777,1.344800,-0.656264,0.015090,0.116057,-0.024245,0.028785,-0.974571,0.222221,-0.016975,-0.008324,0.002297,0.850435,-24.057720,15.090698,,,,,,,
1504197108.422883,3.013704,1.344651,-0.655962,0.008687,0.117174,-0.022122,0.028598,-0.974538,0.222391,-0.007220,-0.008296,0.003103,0.850435,-24.057720,15.090698,,,,,,,
1504197108.432893,3.013969,1.344557,-0.655062,0.003281,0.112948,-0.014653,0.028550,-0.974517,0.222490,0.002746,-0.009507,0.003066,0.550203,-24.058773,14.939972,,,,,,,
1504197108.442903,3.013662,1.344553,-0.653718,-0.005385,0.101289,-0.007178,0.028619,-0.974516,0.222485,0.011496,-0.007753,0.001941,0.550203,-24.058773,14.939972,,,,,,,
1504197108.452913,3.013209,1.344582,-0.652386,-0.005545,0.085299,-0.000749,0.028716,-0.974522,0.222444,0.015138,-0.005214,0.000883,0.775316,-24.057903,15.015503,,,,,,,
1504197108.462921,3.012725,1.344635,-0.651171,-0.004577,0.075695,0.003536,0.028817,-0.974534,0.222379,0.016151,-0.003218,-0.001493,0.775316,-24.057903,15.015503,,,,,,,
1504197108.472931,3.012309,1.344677,-0.650166,-0.000464,0.059670,0.008904,0.028904,-0.974544,0.222326,0.016628,-0.002156,-0.002874,0.400438,-24.059750,15.089600,,,,,,,
1504197108.482941,3.012120,1.344729,-0.649516,0.000462,0.046866,0.016397,0.028940,-0.974555,0.222270,0.015845,-0.002007,-0.003368,0.400438,-24.059750,15.089600,,,,,,,
1504197108.492951,3.012228,1.344780,-0.649284,-0.002846,0.036232,0.020676,0.028910,-0.974567,0.222225,0.013556,-0.003354,-0.001354,0.850313,-24.281826,14.642365,,,,,,,
1504197108.502961,3.012570,1.344839,-0.649373,-0.003982,0.030907,0.026018,0.028826,-0.974580,0.222178,0.012953,-0.004393,-0.000452,0.850313,-24.281826,14.642365,,,,,,,
1504197108.512970,3.013062,1.344888,-0.649661,-0.005101,0.024522,0.026025,0.028710,-0.974591,0.222144,0.011298,-0.006366,0.001764,0.851213,-24.283031,15.242401,,,,,,,
1504197108.522980,3.013714,1.344953,-0.650098,-0.007231,0.025603,0.027084,0.028558,-0.974606,0.222100,0.009360,-0.005695,0.002524,0.851213,-24.283031,15.242401,,,,,,,
1504197108.532990,3.014383,1.345005,-0.650575,-0.008315,0.023480,0.027085,0.028403,-0.974617,0.222069,0.008325,-0.004265,0.003548,0.849718,-23.907269,14.864563,,,,,,,
1504197108.543000,3.015353,1.345041,-0.651383,-0.006220,0.019199,0.028162,0.028183,-0.974625,0.222061,0.005829,-0.002395,0.003937,0.849718,-23.907269,14.864563,,,,,,,
1504197108.552979,3.016747,1.345011,-0.652652,0.004403,0.015910,0.032455,0.027877,-0.974619,0.222130,0.002656,-0.000403,0.003380,0.850206,-24.057430,14.940704,,,,,,,
1504197108.562989,3.018462,1.344930,-0.654272,0.007589,0.012689,0.030332,0.027506,-0.974601,0.222255,-0.001383,0.000968,0.003026,0.850206,-24.057430,14.940704,,,,,,,
1504197108.572999,3.020197,1.344828,-0.655886,0.012970,0.015847,0.026067,0.027132,-0.974578,0.222401,-0.004183,0.000212,0.001628,0.625322,-24.058590,15.015137,,,,,,,
1504197108.583009,3.021705,1.344704,-0.657196,0.007728,0.023356,0.019641,0.026811,-0.974550,0.222562,-0.003084,0.003297,0.002795,0.625322,-24.058590,15.015137,,,,,,,
1504197108.593019,3.023021,1.344588,-0.658239,0.002476,0.030863,0.015350,0.026532,-0.974524,0.222709,-0.003125,0.000372,0.005913,0.774599,-23.907467,14.789368,,,,,,,
1504197108.603029,3.024154,1.344494,-0.659032,-0.009206,0.037353,0.015319,0.026290,-0.974503,0.222830,-0.000426,-0.001175,0.009897,0.774599,-23.907467,14.789368,,,,,,,
1504197108.613037,3.025116,1.344434,-0.659616,-0.018785,0.040628,0.016363,0.026082,-0.974489,0.222913,0.002665,-0.003630,0.014727,0.475389,-24.134106,14.940338,,,,,,,
1504197108.623047,3.026087,1.344432,-0.660222,-0.023094,0.038526,0.021696,0.025866,-0.974489,0.222941,0.004545,-0.005812,0.015173,0.475389,-24.134106,14.940338,,,,,,,
1504197108.633057,3.027120,1.344444,-0.660956,-0.019953,0.032104,0.023846,0.025634,-0.974491,0.222956,0.004013,-0.004223,0.014547,0.475389,-24.134106,14.940338,,,,,,,
1504197108.643067,3.028271,1.344362,-0.661861,-0.010402,0.026695,0.026006,0.025387,-0.974473,0.223064,0.004200,-0.000838,0.013722,0.550432,-24.059078,15.089966,,,,,,,
1504197108.653076,3.029375,1.344198,-0.662790,-0.004060,0.020247,0.028162,0.025158,-0.974436,0.223251,0.005588,0.001261,0.013306,0.624941,-23.908581,15.014008,,,,,,,
1504197108.663086,3.030154,1.344030,-0.663460,-0.007317,0.012814,0.028168,0.025003,-0.974399,0.223433,0.008979,-0.000745,0.014345,0.624941,-23.908581,15.014008,,,,,,,
1504197108.673096,3.030587,1.343902,-0.663840,-0.022290,0.008673,0.029214,0.024920,-0.974370,0.223568,0.012586,-0.004527,0.019871,0.775927,-24.208202,15.166626,,,,,,,
1504197108.683106,3.030808,1.343829,-0.664046,-0.035108,0.005582,0.028126,0.024878,-0.974353,0.223644,0.014505,-0.004818,0.024724,0.775927,-24.208202,15.166626,,,,,,,
1504197108.693116,3.030880,1.343823,-0.664140,-0.039421,0.001351,0.031325,0.024863,-0.974352,0.223651,0.016672,-0.001936,0.024167,0.700502,-24.133251,15.015869,,,,,,,
1504197108.703125,3.030628,1.343801,-0.664020,-0.033126,-0.010428,0.034554,0.024921,-0.974347,0.223667,0.021023,0.000211,0.020871,0.700502,-24.133251,15.015869,,,,,,,
1504197108.713135,3.030230,1.343768,-0.663909,-0.027922,-0.023266,0.040984,0.025014,-0.974340,0.223688,0.024791,0.005178,0.017858,0.624834,-23.908428,14.939026,,,,,,,
1504197108.723145,3.030038,1.343746,-0.664146,-0.031259,-0.036035,0.048467,0.025059,-0.974335,0.223706,0.024272,0.006592,0.017551,0.624834,-23.908428,14.939026,,,,,,,
1504197108.733155,3.030100,1.343787,-0.664768,-0.033546,-0.050944,0.055956,0.025041,-0.974344,0.223667,0.023009,0.005563,0.016354,0.625200,-24.058437,14.940155,,,,,,,
1504197108.743165,3.030615,1.343879,-0.666079,-0.035932,-0.075447,0.067731,0.024916,-0.974365,0.223591,0.020113,0.004623,0.016400,0.625200,-24.058437,14.940155,,,,,,,
1504197108.753175,3.032077,1.344005,-0.668411,-0.037027,-0.075445,0.074131,0.024576,-0.974393,0.223505,0.012473,0.002622,0.018072,0.550097,-24.058620,14.864960,,,,,,,
1504197108.763185,3.034233,1.344074,-0.671242,-0.031474,-0.055233,0.063431,0.024087,-0.974408,0.223491,0.001731,0.001813,0.019246,0.550097,-24.058620,14.864960,,,,,,,
1504197108.773195,3.036147,1.344071,-0.673777,-0.023959,-0.055286,0.054905,0.023659,-0.974408,0.223540,0.000404,0.000302,0.019182,0.549303,-23.833324,14.713257,,,,,,,
1504197108.783203,3.038142,1.344098,-0.676351,-0.024974,-0.053139,0.048497,0.023210,-0.974414,0.223560,-0.004106,0.001315,0.015835,0.549303,-23.833324,14.713257,,,,,,,
1504197108.793213,3.040860,1.344310,-0.679497,-0.038706,-0.034912,0.050579,0.022582,-0.974461,0.223417,-0.012297,0.001775,0.012896,0.325212,-24.059780,14.939423,,,,,,,
1504197108.803223,3.044412,1.344667,-0.683298,-0.038540,-0.018920,0.043085,0.021754,-0.974542,0.223149,-0.024364,0.015786,0.003688,0.325212,-24.059780,14.939423,,,,,,,
1504197108.813233,3.047748,1.344772,-0.686573,-0.028613,0.011918,0.028111,0.021000,-0.974565,0.223118,-0.023609,0.022371,0.011775,0.399599,-23.909145,14.788452,,,,,,,
1504197108.823242,3.049345,1.344822,-0.687844,-0.016569,0.037415,0.007808,0.020639,-0.974576,0.223103,-0.009638,0.007566,0.008968,0.399599,-23.909145,14.788452,,,,,,,
1504197108.833252,3.049525,1.344822,-0.687526,-0.006747,0.050146,-0.015679,0.020599,-0.974576,0.223107,-0.001999,0.005674,0.003623,0.175508,-24.135601,15.014587,,,,,,,
1504197108.843262,3.048734,1.344760,-0.686228,0.000773,0.040521,-0.041266,0.020781,-0.974562,0.223151,-0.003600,-0.004823,0.004922,0.175508,-24.135601,15.014587,,,,,,,
1504197108.853272,3.047756,1.344685,-0.684854,0.000725,0.035193,-0.040187,0.021006,-0.974546,0.223203,-0.009364,-0.021319,0.002581,0.625704,-24.208584,15.016266,,,,,,,
1504197108.863282,3.047415,1.344947,-0.684367,-0.032808,0.004522,0.002505,0.021059,-0.974604,0.222942,0.001723,-0.059942,0.013844,0.625704,-24.208584,15.016266,,,,,,,
1504197108.873291,3.048123,1.345430,-0.685550,-0.051612,-0.056100,0.038871,0.020857,-0.974712,0.222488,-0.013105,-0.028049,-0.015411,0.549868,-24.058331,14.714966,,,,,,,
1504197108.883301,3.049232,1.346085,-0.687389,-0.062425,-0.068807,0.047414,0.020551,-0.974859,0.221875,-0.038923,0.012807,-0.002499,0.549868,-24.058331,14.714966,,,,,,,
1504197108.893312,3.049950,1.346640,-0.688843,-0.045317,-0.072131,0.034640,0.020342,-0.974982,0.221351,-0.026598,-0.002038,0.012856,0.625994,-24.283733,15.091827,,,,,,,
1504197108.903322,3.050237,1.346865,-0.689744,-0.028023,-0.053078,0.020760,0.020259,-0.975032,0.221138,0.001226,-0.000371,0.006446,0.625994,-24.283733,15.091827,,,,,,,
1504197108.913331,3.050352,1.347112,-0.690243,-0.023500,-0.026467,0.012182,0.020211,-0.975087,0.220901,0.001578,-0.011653,0.006562,0.625658,-24.283291,14.866821,,,,,,,
1504197108.923341,3.050650,1.347461,-0.690601,-0.039300,-0.002890,0.008911,0.020115,-0.975164,0.220568,-0.005741,-0.010248,-0.001848,0.625658,-24.283291,14.866821,,,,,,,
1504197108.933351,3.051878,1.348016,-0.691660,-0.042375,0.016311,0.014211,0.019795,-0.975287,0.220054,-0.008443,0.007178,-0.008460,0.325396,-24.134777,14.939972,,,,,,,
1504197108.943361,3.053026,1.348447,-0.692647,-0.031680,0.018357,0.012093,0.019505,-0.975382,0.219657,-0.007130,0.020624,-0.007560,0.325396,-24.134777,14.939972,,,,,,,
1504197108.953339,3.053230,1.348703,-0.692963,-0.023459,-0.013691,0.023903,0.019439,-0.975439,0.219412,0.006334,0.015966,-0.002966,0.025667,-24.285992,14.865356,,,,,,,
1504197108.963349,3.051495,1.348874,-0.691657,-0.011927,-0.040426,0.021828,0.019804,-0.975476,0.219212,0.028017,-0.003406,-0.002430,0.025667,-24.285992,14.865356,,,,,,,
1504197108.973358,3.050508,1.349019,-0.691105,0.001020,-0.036248,-0.000574,0.020008,-0.975508,0.219052,0.008481,-0.009706,-0.006650,0.325655,-24.284634,14.866089,,,,,,,
1504197108.983368,3.049929,1.349132,-0.690663,-0.013690,-0.013739,-0.010246,0.020124,-0.975533,0.218931,-0.008360,-0.024971,-0.000425,0.325655,-24.284634,14.866089,,,,,,,
1504197108.993378,3.049231,1.349333,-0.689913,-0.026306,0.007681,-0.013508,0.020259,-0.975577,0.218721,-0.010509,-0.021646,0.002348,0.325991,-24.285091,15.091095,,,,,,,
1504197109.003388,3.049935,1.349685,-0.690476,-0.040240,0.008846,0.001412,0.020074,-0.975654,0.218393,-0.009118,-0.013725,0.004813,0.325991,-24.285091,15.091095,,,,,,,
1504197109.013398,3.050451,1.350167,-0.691157,-0.046981,-0.024147,0.016403,0.019918,-0.975760,0.217935,-0.004415,-0.012537,0.001669,0.626375,-24.433743,15.092957,,,,,,,
1504197109.023407,3.051817,1.350776,-0.692955,-0.050467,-0.044390,0.040985,0.019567,-0.975893,0.217371,-0.004583,0.001116,-0.003565,0.626375,-24.433743,15.092957,,,,,,,
1504197109.033417,3.052752,1.351362,-0.694547,-0.042106,-0.064707,0.043169,0.019313,-0.976021,0.216819,0.001683,0.006905,-0.006751,0.625658,-24.283291,14.866821,,,,,,,
1504197109.043427,3.052251,1.351860,-0.694836,-0.038899,-0.071116,0.031441,0.019378,-0.976129,0.216326,0.013031,0.013940,-0.006288,0.625658,-24.283291,14.866821,,,,,,,
1504197109.053437,3.050712,1.352185,-0.693988,-0.030055,-0.059433,0.016503,0.019683,-0.976200,0.215979,0.018922,0.006946,-0.003913,0.325472,-24.209637,14.865509,,,,,,,
1504197109.063447,3.049311,1.352598,-0.693143,-0.032092,-0.051950,0.009011,0.019948,-0.976289,0.215550,0.013866,-0.005355,-0.002538,0.325472,-24.209637,14.865509,,,,,,,
1504197109.073457,3.048610,1.353039,-0.693073,-0.027922,-0.065834,0.005840,0.020059,-0.976384,0.215107,0.002219,-0.009440,-0.005970,0.850313,-24.281826,14.642365,,,,,,,
1504197109.083467,3.048622,1.353547,-0.693754,-0.034360,-0.066852,0.011169,0.020010,-0.976494,0.214614,-0.006140,-0.012230,-0.005217,0.850313,-24.281826,14.642365,,,,,,,
1504197109.093477,3.048925,1.354061,-0.694702,-0.043962,-0.061453,0.019683,0.019899,-0.976605,0.214120,-0.004655,-0.023884,0.001487,0.325548,-24.284481,14.791077,,,,,,,
1504197109.103485,3.050214,1.354637,-0.696718,-0.035597,-0.078578,0.026136,0.019572,-0.976728,0.213585,-0.012690,-0.015886,-0.003731,0.325548,-24.284481,14.791077,,,,,,,
1504197109.113495,3.052887,1.355265,-0.700156,-0.045230,-0.077439,0.033596,0.018946,-0.976863,0.213026,-0.026148,0.000377,-0.007322,0.550432,-24.059078,15.089966,,,,,,,
1504197109.123505,3.056305,1.355717,-0.704036,-0.032141,-0.037060,0.041026,0.018180,-0.976960,0.212649,-0.024940,0.005890,-0.001391,0.550432,-24.059078,15.089966,,,,,,,
1504197109.133515,3.058506,1.356030,-0.706498,-0.021256,-0.025401,0.016478,0.017687,-0.977026,0.212384,-0.015322,0.015372,-0.003400,0.999941,-24.131145,14.641632,,,,,,,
1504197109.143524,3.059920,1.356258,-0.707991,-0.012446,-0.011585,-0.016615,0.017369,-0.977075,0.212186,-0.023838,0.025094,-0.008909,0.999941,-24.131145,14.641632,,,,,,,
1504197109.153534,3.058753,1.356088,-0.707583,0.012607,-0.116160,-0.072952,0.017630,-0.977039,0.212332,-0.027640,0.007861,0.004648,0.549486,-23.908321,14.713837,,,,,,,
1504197109.163544,3.054565,1.356010,-0.704502,-0.022396,-0.094552,-0.079453,0.018526,-0.977022,0.212332,-0.011232,-0.010084,0.007563,0.549486,-23.908321,14.713837,,,,,,,
1504197109.173554,3.051970,1.356357,-0.702088,-0.034662,-0.002850,-0.040142,0.019046,-0.977096,0.211945,0.065365,-0.072709,0.037338,0.699602,-23.907803,14.789185,,,,,,,
1504197109.183564,3.048780,1.356368,-0.699057,-0.000666,-0.045713,-0.079501,0.019721,-0.977098,0.211873,0.021310,-0.037184,-0.017934,0.699602,-23.907803,14.789185,,,,,,,
1504197109.193573,3.041555,1.356078,-0.692846,0.018185,-0.133176,-0.148695,0.021280,-0.977037,0.212007,-0.057229,0.013413,-0.004640,0.550692,-24.208920,15.016083,,,,,,,
1504197109.203578,3.034938,1.355486,-0.687183,0.005605,-0.111749,-0.158357,0.022743,-0.976910,0.212436,-0.020409,-0.027194,0.025647,0.550692,-24.208920,15.016083,,,,,,,
1504197109.213588,3.027526,1.355357,-0.680516,-0.002849,-0.088258,-0.137065,0.024332,-0.976883,0.212387,0.010107,-0.046311,0.010818,0.925844,-24.356945,14.868134,,,,,,,
1504197109.223598,3.020765,1.355349,-0.674689,-0.014860,-0.112684,-0.121031,0.025768,-0.976881,0.212226,0.023380,-0.040118,0.002755,0.925844,-24.356945,14.868134,,,,,,,
1504197109.233607,3.015757,1.355394,-0.670537,-0.020131,-0.070075,-0.065611,0.026825,-0.976891,0.212050,0.032074,-0.034401,0.001954,0.850618,-24.356976,14.717957,,,,,,,
1504197109.243617,3.017895,1.356439,-0.672273,-0.097800,0.095501,0.155976,0.026246,-0.977113,0.211095,0.024490,-0.019438,-0.001439,0.850618,-24.356976,14.717957,,,,,,,
1504197109.253627,3.026807,1.357306,-0.681226,-0.040156,-0.016891,0.184027,0.024267,-0.977297,0.210478,-0.057180,0.080721,-0.044600,0.625322,-24.282833,14.641815,,,,,,,
1504197109.263637,3.030432,1.357393,-0.686032,0.005457,-0.115193,0.079674,0.023494,-0.977316,0.210480,-0.105006,0.137442,-0.038437,0.625322,-24.282833,14.641815,,,,,,,
1504197109.273646,3.030357,1.357167,-0.686613,0.033150,-0.042868,-0.009000,0.023534,-0.977268,0.210698,0.048380,0.000110,0.054500,1.001223,-24.506603,14.869446,,,,,,,
1504197109.283656,3.028272,1.356580,-0.684368,0.060593,0.018768,-0.064566,0.024038,-0.977143,0.211219,0.035440,-0.015853,-0.001593,1.001223,-24.506603,14.869446,,,,,,,
1504197109.293666,3.023744,1.355861,-0.679496,0.066021,0.037891,-0.052857,0.025077,-0.976990,0.211805,0.025338,-0.032577,0.000735,1.075319,-24.280819,14.642914,,,,,,,
1504197109.303676,3.022226,1.355071,-0.677697,0.078705,0.024996,-0.049610,0.025490,-0.976821,0.212533,-0.025582,-0.033448,-0.004205,1.075319,-24.280819,14.642914,,,,,,,
1504197109.313685,3.022082,1.354615,-0.677045,0.030616,0.041333,-0.008093,0.025574,-0.976724,0.212971,-0.025666,-0.033545,-0.004643,1.000658,-24.281597,14.867737,,,,,,,
1504197109.323695,3.023188,1.354500,-0.677655,0.002855,0.055386,0.018519,0.025352,-0.976699,0.213111,-0.033409,-0.032472,0.010018,1.000658,-24.281597,14.867737,,,,,,,
1504197109.333705,3.030018,1.354971,-0.683811,-0.046324,0.067475,0.057920,0.023845,-0.976800,0.212822,-0.042064,-0.017646,0.003746,0.925920,-24.431789,14.793671,,,,,,,
1504197109.343684,3.034182,1.355786,-0.687528,-0.083995,0.049632,0.095245,0.022873,-0.976974,0.212128,-0.024399,-0.017594,0.011627,0.925920,-24.431789,14.793671,,,,,,,
1504197109.353694,3.038935,1.356760,-0.692359,-0.086633,0.000612,0.117742,0.021767,-0.977182,0.211288,-0.005806,-0.016593,0.008103,1.000734,-24.356457,14.793304,,,,,,,
1504197109.363704,3.046207,1.357747,-0.699227,-0.084077,0.087913,0.173098,0.020138,-0.977391,0.210481,0.025944,-0.020199,0.008742,1.000734,-24.356457,14.793304,,,,,,,
1504197109.373714,3.055649,1.358379,-0.707274,-0.039855,0.178072,0.222110,0.018097,-0.977524,0.210045,0.020768,0.004624,0.003837,0.700502,-24.357494,14.642578,,,,,,,
1504197109.383723,3.067636,1.358545,-0.717771,0.011262,0.164866,0.220087,0.015566,-0.977559,0.210086,-0.005495,0.052754,0.003095,0.700502,-24.357494,14.642578,,,,,,,
1504197109.393733,3.078419,1.358463,-0.727518,0.023733,0.109376,0.197791,0.013305,-0.977542,0.210321,0.021714,0.033450,0.017569,0.474977,-24.058804,14.789764,,,,,,,
1504197109.403743,3.087344,1.358297,-0.735856,0.025734,0.072098,0.164771,0.011436,-0.977507,0.210593,0.014748,0.014387,-0.005973,0.474977,-24.058804,14.789764,,,,,,,
1504197109.413753,3.094947,1.358455,-0.742838,0.015290,0.080742,0.132716,0.009827,-0.977540,0.210520,-0.001831,0.004975,-0.012842,0.176119,-24.510159,14.792389,,,,,,,
1504197109.423762,3.100962,1.358451,-0.748131,-0.001573,0.089435,0.104919,0.008561,-0.977539,0.210579,-0.007050,-0.017181,0.001091,0.176119,-24.510159,14.792389,,,,,,,
1504197109.433772,3.106062,1.358676,-0.752392,-0.025978,0.094983,0.086721,0.007479,-0.977587,0.210400,-0.006884,-0.043318,0.007785,0.325884,-24.509182,14.642761,,,,,,,
1504197109.443782,3.112663,1.359327,-0.757662,-0.081068,0.171049,0.130255,0.006071,-0.977724,0.209809,-0.004347,-0.069624,0.013061,0.325884,-24.509182,14.642761,,,,,,,
1504197109.453792,3.124885,1.360352,-0.767631,-0.081697,0.257317,0.180276,0.003490,-0.977938,0.208865,-0.017086,-0.054868,0.005551,0.025774,-24.286129,14.940369,,,,,,,
1504197109.463801,3.138527,1.361278,-0.778701,-0.095786,0.276536,0.254936,0.000638,-0.978131,0.207988,-0.034405,-0.011066,0.007604,0.025774,-24.286129,14.940369,,,,,,,
1504197109.473811,-3.126434,1.362336,-0.794218,-0.093724,0.307355,0.318930,-0.003137,-0.978351,0.206930,-0.017066,-0.007413,0.021952,0.100542,-24.285503,14.790527,,,,,,,
1504197109.483821,-3.112095,1.362322,-0.806325,0.013933,0.237300,0.227443,-0.006104,-0.978348,0.206877,-0.091522,0.120163,-0.055617,0.100542,-24.285503,14.790527,,,,,,,
1504197109.493831,-3.101813,1.361941,-0.814654,0.035389,0.209488,0.159216,-0.008246,-0.978269,0.207176,-0.009928,0.068815,0.034447,0.025515,-24.360531,14.640900,,,,,,,
1504197109.503841,-3.097554,1.361070,-0.816985,0.030365,0.202144,0.086628,-0.009166,-0.978088,0.207991,0.024058,-0.005509,0.024736,0.025515,-24.360531,14.640900,,,,,,,
1504197109.513850,-3.094977,1.360735,-0.817976,0.031411,0.145749,0.000270,-0.009717,-0.978018,0.208293,-0.032596,0.047552,-0.044017,-0.199675,-24.286541,14.639771,,,,,,,
1504197109.523860,-3.096556,1.360495,-0.815300,0.024956,0.095791,-0.069034,-0.009398,-0.977968,0.208543,-0.040635,0.065126,-0.026338,-0.199675,-24.286541,14.639771,,,,,,,
1504197109.533870,-3.099221,1.360321,-0.811490,0.019801,0.112892,-0.077612,-0.008850,-0.977932,0.208737,-0.050141,0.064693,-0.018872,-0.199522,-24.211987,14.864227,,,,,,,
1504197109.543880,-3.095680,1.360047,-0.813456,0.038110,0.145759,-0.059477,-0.009601,-0.977875,0.208972,-0.042462,0.026230,-0.008563,-0.199522,-24.211987,14.864227,,,,,,,
1504197109.553889,-3.095951,1.359561,-0.811628,0.058244,0.149820,-0.025292,-0.009566,-0.977773,0.209450,-0.007554,-0.030482,0.004006,-0.349302,-24.437222,14.640533,,,,,,,
1504197109.563899,-3.093363,1.359060,-0.812677,0.057014,0.164690,0.031251,-0.010132,-0.977667,0.209914,0.039063,-0.075830,0.012087,-0.349302,-24.437222,14.640533,,,,,,,
1504197109.573909,-3.089131,1.358275,-0.815196,0.078390,0.193245,0.069665,-0.011061,-0.977502,0.210635,0.007261,-0.028632,-0.019229,-0.575010,-24.063534,14.787170,,,,,,,
1504197109.583919,-3.085085,1.356883,-0.817102,0.052816,0.251968,0.159165,-0.011989,-0.977208,0.211947,0.038936,-0.074382,0.048460,-0.575010,-24.063534,14.787170,,,,,,,
1504197109.593928,-3.071833,1.356537,-0.827934,0.008686,0.262889,0.254069,-0.014821,-0.977134,0.212107,0.072453,-0.144616,0.064276,-0.649824,-24.138866,14.787537,,,,,,,
1504197109.603938,-3.055706,1.356550,-0.842305,-0.041331,0.185446,0.318163,-0.018238,-0.977137,0.211828,0.042454,-0.109670,0.014781,-0.649824,-24.138866,14.787537,,,,,,,
1504197109.613948,-3.038510,1.357136,-0.858643,-0.105038,0.106025,0.342742,-0.021819,-0.977261,0.210913,0.013533,-0.064258,0.012430,-0.724714,-24.139355,14.862366,,,,,,,
1504197109.623958,-3.020272,1.358295,-0.875985,-0.167794,0.132113,0.345790,-0.025525,-0.977506,0.209355,-0.043857,0.021009,-0.007817,-0.724714,-24.139355,14.862366,,,,,,,
1504197109.633967,-3.007505,1.359172,-0.887934,-0.097945,0.098664,0.192264,-0.028081,-0.977691,0.208163,-0.096691,0.175277,-0.047946,-0.950239,-24.064922,14.636230,,,,,,,
1504197109.643977,-3.003871,1.359410,-0.890591,-0.007316,0.110894,0.009874,-0.028805,-0.977741,0.207829,-0.056110,0.187580,-0.004613,-0.950239,-24.064922,14.636230,,,,,,,
1504197109.653987,-3.009522,1.357962,-0.883281,0.072716,0.182796,-0.088325,-0.027816,-0.977436,0.209391,0.023834,0.057667,0.027227,-1.175230,-24.065929,14.635681,,,,,,,
1504197109.663997,-3.012801,1.356983,-0.877905,0.121942,0.195187,-0.097869,-0.027253,-0.977229,0.210431,0.027192,0.002146,-0.007489,-1.175230,-24.065929,14.635681,,,,,,,
1504197109.674007,-3.015496,1.355889,-0.873671,0.114801,0.122752,-0.065731,-0.026820,-0.976996,0.211564,0.002574,-0.004876,-0.022599,-1.399183,-24.217831,15.086273,,,,,,,
1504197109.684016,-3.016873,1.355375,-0.871573,0.031909,0.053068,-0.029460,-0.026591,-0.976886,0.212099,-0.018346,0.012134,-0.016558,-1.399183,-24.217831,15.086273,,,,,,,
1504197109.694026,-3.010537,1.355545,-0.877457,-0.050591,0.027083,-0.001785,-0.027912,-0.976923,0.211761,-0.045254,0.049738,-0.011642,-0.949400,-24.215511,14.937378,,,,,,,
1504197109.704036,-3.009293,1.356472,-0.878374,-0.104957,0.040306,0.009839,-0.028057,-0.977120,0.210829,-0.055363,0.074380,-0.008528,-0.949400,-24.215511,14.937378,,,,,,,
1504197109.714046,-3.007964,1.357554,-0.879244,-0.105887,0.052044,0.001277,-0.028196,-0.977350,0.209743,-0.039797,0.075708,-0.012584,-1.400114,-24.067089,14.710144,,,,,,,
1504197109.724055,-3.007846,1.358157,-0.878748,-0.039515,0.063247,-0.025313,-0.028142,-0.977477,0.209156,-0.011790,0.051131,-0.012669,-1.400114,-24.067089,14.710144,,,,,,,
1504197109.734065,-3.013621,1.358022,-0.872416,0.035205,0.059445,-0.038000,-0.026950,-0.977449,0.209446,0.034885,-0.010894,0.007671,-1.249632,-24.216564,14.786621,,,,,,,
1504197109.744044,-3.015287,1.357385,-0.870350,0.076510,0.023935,-0.033596,-0.026680,-0.977314,0.210108,0.083503,-0.078258,0.022223,-1.249632,-24.216564,14.786621,,,,,,,
1504197109.754054,-3.016894,1.356769,-0.868896,0.055714,-0.032386,-0.018589,-0.026417,-0.977184,0.210747,0.090809,-0.107503,0.021232,-1.399855,-24.216946,14.636261,,,,,,,
1504197109.764064,-3.017729,1.356691,-0.868599,-0.007518,-0.056393,-0.000510,-0.026250,-0.977167,0.210845,0.053777,-0.098883,0.020493,-1.399855,-24.216946,14.636261,,,,,,,
1504197109.774074,-3.018035,1.357196,-0.868762,-0.072506,-0.036690,0.012149,-0.026125,-0.977274,0.210364,0.003115,-0.051336,0.014612,-1.399885,-24.067394,14.860138,,,,,,,
1504197109.784083,-3.016782,1.358151,-0.870232,-0.103292,-0.011937,0.020592,-0.026273,-0.977476,0.209405,-0.020358,-0.000918,0.008887,-1.399885,-24.067394,14.860138,,,,,,,
1504197109.794093,-3.015063,1.359129,-0.872009,-0.098948,0.000809,0.025914,-0.026512,-0.977682,0.208411,-0.022118,0.032446,0.000817,-1.024672,-24.290249,14.637756,,,,,,,
1504197109.804103,-3.013519,1.359902,-0.873550,-0.072219,0.003793,0.019550,-0.026737,-0.977844,0.207620,-0.020687,0.048187,-0.006936,-1.024672,-24.290249,14.637756,,,,,,,
1504197109.814113,-3.009400,1.360273,-0.877592,-0.035902,0.000313,0.005753,-0.027544,-0.977922,0.207148,-0.021559,0.053926,-0.011546,-1.173765,-24.516384,14.864075,,,,,,,
1504197109.824122,-3.009836,1.360350,-0.877200,0.002552,-0.007440,-0.015514,-0.027444,-0.977938,0.207086,-0.019004,0.050783,-0.010904,-1.173765,-24.516384,14.864075,,,,,,,
1504197109.834132,-3.011392,1.360197,-0.875763,0.026017,-0.018273,-0.031465,-0.027141,-0.977906,0.207277,-0.009495,0.039032,-0.002428,-1.399473,-24.366940,14.637390,,,,,,,
1504197109.844142,-3.013593,1.359892,-0.873748,0.033471,-0.024720,-0.038913,-0.026723,-0.977842,0.207632,-0.000087,0.020597,0.004923,-1.399473,-24.366940,14.637390,,,,,,,
1504197109.854152,-3.016842,1.359438,-0.870778,0.031278,-0.031098,-0.036774,-0.026103,-0.977747,0.208158,0.005916,-0.002585,0.007281,-1.398909,-24.591946,14.639069,,,,,,,
1504197109.864162,-3.018701,1.359224,-0.869140,0.019565,-0.023550,-0.029335,-0.025742,-0.977702,0.208413,0.010239,-0.027135,0.007972,-1.398909,-24.591946,14.639069,,,,,,,
1504197109.874171,-3.019919,1.359157,-0.868075,0.006783,-0.014930,-0.019766,-0.025496,-0.977688,0.208510,0.013854,-0.041996,0.009797,-0.948393,-24.665371,14.865753,,,,,,,
1504197109.884181,-3.020586,1.359184,-0.867474,-0.005994,-0.006309,-0.011264,-0.025354,-0.977694,0.208500,0.017770,-0.047178,0.011028,-0.948393,-24.665371,14.865753,,,,,,,
1504197109.894191,-3.023148,1.359342,-0.864956,-0.009167,0.001168,-0.004886,-0.024801,-0.977727,0.208411,0.016256,-0.044688,0.009744,-1.398954,-24.442394,14.862946,,,,,,,
1504197109.904201,-3.023152,1.359544,-0.864886,-0.022990,0.007674,-0.003854,-0.024777,-0.977769,0.208216,0.010541,-0.034743,0.007589,-1.398954,-24.442394,14.862946,,,,,,,
1504197109.914210,-3.023116,1.359660,-0.864741,-0.006862,0.022461,-0.004919,-0.024771,-0.977793,0.208102,0.000327,-0.019613,0.007627,-1.398573,-24.592388,14.864075,,,,,,,
1504197109.924220,-3.023148,1.359769,-0.864386,-0.009943,0.034214,-0.010282,-0.024752,-0.977816,0.207997,-0.006956,-0.004117,0.007763,-1.398573,-24.592388,14.864075,,,,,,,
1504197109.934230,-3.022462,1.359483,-0.864639,0.007208,0.040472,-0.015597,-0.024928,-0.977756,0.208257,-0.007909,0.004795,0.007136,-1.099516,-24.216045,14.862000,,,,,,,
1504197109.944240,-3.022941,1.359428,-0.863729,0.008291,0.040467,-0.018798,-0.024835,-0.977745,0.208323,-0.002616,0.008506,0.004064,-1.099516,-24.216045,14.862000,,,,,,,
1504197109.954249,-3.023411,1.359382,-0.862878,0.003956,0.034106,-0.015592,-0.024742,-0.977735,0.208379,0.009147,0.004179,0.004237,-1.398954,-24.442394,14.862946,,,,,,,
1504197109.964259,-3.023650,1.359399,-0.862344,0.001723,0.025593,-0.009176,-0.024690,-0.977739,0.208369,0.017396,-0.001494,0.005422,-1.398954,-24.442394,14.862946,,,,,,,
1504197109.974269,-3.026403,1.359358,-0.859477,-0.011192,0.013971,-0.004916,-0.024121,-0.977730,0.208476,0.017773,-0.004982,0.007512,-1.174437,-24.291225,14.787384,,,,,,,
